timestamp_before, timestamp_after, accel_x, accel_y, accel_z, gyro_x, gyro_y, gyro_z
1494299264.127114, 1494299264.127114, -1.118774, +0.024170, -0.106812, +0.415311, -0.070704, +0.226011 
1494299264.139512, 1494299264.139512, -1.121460, +0.026978, -0.107544, +0.415311, -0.070704, +0.226011 
1494299264.143510, 1494299264.143510, -1.121460, +0.026978, -0.107544, +0.216947, -0.192774, -0.063906 
1494299264.148068, 1494299264.148068, -1.121460, +0.026978, -0.107544, +0.216947, -0.192774, -0.063906 
1494299264.152018, 1494299264.152018, -1.121460, +0.026978, -0.107544, +0.216947, -0.192774, -0.063906 
1494299264.156018, 1494299264.156018, -1.121460, +0.016968, -0.106323, -0.042452, -0.085963, -0.094424 
1494299264.159966, 1494299264.159966, -1.125000, +0.016968, -0.106323, -0.042452, -0.085963, -0.094424 
1494299264.163998, 1494299264.163998, -1.125000, +0.016968, -0.106323, -0.042452, -0.085963, -0.094424 
1494299264.167966, 1494299264.167966, -1.125000, +0.016968, -0.106323, +0.049100, +0.158178, -0.033389 
1494299264.171909, 1494299264.171909, -1.125000, +0.016968, -0.106323, +0.049100, +0.158178, -0.033389 
1494299264.175802, 1494299264.175802, -1.125000, +0.021362, -0.100098, +0.049100, +0.127660, -0.124942 
1494299264.179555, 1494299264.179555, -1.123535, +0.021362, -0.100098, +0.430570, +0.127660, -0.124942 
1494299264.183301, 1494299264.183301, -1.123535, +0.021362, -0.100098, +0.430570, +0.127660, -0.124942 
1494299264.187110, 1494299264.187110, -1.123535, +0.021362, -0.100098, +0.567899, +0.097143, +0.058164 
1494299264.190860, 1494299264.190860, -1.123535, +0.021362, -0.100098, +0.567899, +0.097143, +0.058164 
1494299264.194625, 1494299264.194625, -1.123535, +0.021362, -0.100098, +0.567899, +0.097143, +0.058164 
1494299264.198371, 1494299264.198371, -1.124634, +0.022827, -0.102295, +0.339017, -0.177516, -0.002871 
1494299264.202121, 1494299264.202121, -1.124634, +0.022827, -0.102295, +0.339017, -0.177516, -0.002871 
1494299264.205911, 1494299264.205911, -1.124634, +0.022827, -0.102295, +0.339017, -0.177516, -0.002871 
1494299264.209661, 1494299264.209661, -1.124634, +0.022827, -0.102295, +0.018583, -0.101222, -0.109683 
1494299264.213414, 1494299264.213414, -1.124634, +0.022827, -0.102295, +0.018583, -0.101222, -0.109683 
1494299264.217391, 1494299264.217391, -1.124512, +0.025024, -0.104126, +0.018583, -0.101222, -0.109683 
1494299264.221340, 1494299264.221340, -1.124512, +0.025024, -0.104126, +0.033842, +0.142919, -0.353823 
1494299264.225257, 1494299264.225257, -1.124512, +0.025024, -0.104126, +0.033842, +0.142919, -0.353823 
1494299264.229005, 1494299264.229005, -1.124512, +0.025024, -0.104126, +0.033842, +0.142919, -0.353823 
1494299264.232748, 1494299264.232748, -1.124512, +0.025024, -0.104126, -0.164523, +0.173437, -0.262271 
1494299264.236640, 1494299264.236640, -1.122803, +0.025024, -0.104248, -0.164523, +0.173437, -0.262271 
1494299264.240558, 1494299264.240558, -1.122803, +0.025024, -0.104248, -0.164523, +0.173437, -0.643740 
1494299264.244473, 1494299264.244473, -1.122803, +0.025024, -0.104248, -0.118746, +0.234472, -0.643740 
1494299264.248398, 1494299264.248398, -1.122803, +0.025024, -0.104248, -0.118746, +0.234472, -0.643740 
1494299264.252317, 1494299264.252317, -1.122803, +0.025024, -0.104248, -0.210299, -0.223292, -0.826846 
1494299264.256230, 1494299264.256230, -1.121826, +0.019897, -0.108032, -0.210299, -0.223292, -0.826846 
1494299264.260106, 1494299264.260106, -1.121826, +0.019897, -0.108032, -0.210299, -0.223292, -0.826846 
1494299264.264054, 1494299264.264054, -1.121826, +0.019897, -0.108032, +0.049100, +0.173437, -0.872622 
1494299264.268056, 1494299264.268056, -1.121826, +0.019897, -0.108032, +0.049100, +0.173437, -0.872622 
1494299264.272112, 1494299264.272112, -1.121826, +0.019897, -0.108032, +0.049100, +0.173437, -0.872622 
1494299264.275984, 1494299264.275984, -1.126831, +0.022217, -0.103149, -0.195040, -0.024928, -0.826846 
1494299264.279721, 1494299264.279721, -1.126831, +0.022217, -0.103149, -0.195040, -0.024928, -0.826846 
1494299264.283461, 1494299264.283461, -1.126831, +0.022217, -0.103149, -0.195040, -0.024928, -0.826846 
1494299264.287513, 1494299264.287513, -1.126831, +0.022217, -0.103149, -0.393404, +0.249731, -0.720034 
1494299264.291454, 1494299264.291454, -1.126831, +0.022217, -0.103149, -0.393404, +0.249731, -0.720034 
1494299264.295406, 1494299264.295406, -1.119995, +0.017212, -0.106812, -0.393404, +0.249731, -0.597964 
1494299264.299354, 1494299264.299354, -1.119995, +0.017212, -0.106812, -0.362887, +0.295507, -0.597964 
1494299264.303290, 1494299264.303290, -1.119995, +0.017212, -0.106812, -0.362887, +0.295507, -0.597964 
1494299264.307100, 1494299264.307100, -1.119995, +0.017212, -0.106812, -0.225558, -0.131739, -0.658999 
1494299264.310845, 1494299264.310845, -1.119995, +0.017212, -0.106812, -0.225558, -0.131739, -0.658999 
1494299264.314624, 1494299264.314624, -1.119995, +0.021362, -0.107300, -0.225558, -0.131739, -0.658999 
1494299264.318363, 1494299264.318363, -1.126343, +0.021362, -0.107300, -0.256075, -0.055445, -0.552188 
1494299264.322094, 1494299264.322094, -1.126343, +0.021362, -0.107300, -0.256075, -0.055445, -0.552188 
1494299264.325933, 1494299264.325933, -1.126343, +0.021362, -0.107300, -0.256075, -0.055445, -0.552188 
1494299264.329679, 1494299264.329679, -1.126343, +0.021362, -0.107300, +0.003324, +0.158178, -0.247012 
1494299264.333422, 1494299264.333422, -1.126343, +0.021362, -0.107300, +0.003324, +0.158178, -0.247012 
1494299264.337523, 1494299264.337523, -1.123413, +0.020630, -0.106323, +0.003324, +0.158178, -0.247012 
1494299264.341276, 1494299264.341276, -1.123413, +0.020630, -0.106323, +0.323759, +0.158178, -0.628482 
1494299264.345146, 1494299264.345146, -1.123413, +0.020630, -0.106323, +0.323759, +0.158178, -0.628482 
1494299264.349037, 1494299264.349037, -1.123413, +0.020630, -0.106323, +0.323759, +0.158178, -0.628482 
1494299264.353101, 1494299264.353101, -1.123413, +0.020630, -0.106323, +0.354276, -0.040186, -0.491153 
1494299264.357165, 1494299264.357165, -1.120850, +0.029175, -0.106567, +0.354276, -0.040186, -0.491153 
1494299264.361043, 1494299264.361043, -1.120850, +0.029175, -0.106567, +0.354276, -0.162257, -0.475894 
1494299264.365052, 1494299264.365052, -1.120850, +0.029175, -0.106567, -0.057711, -0.162257, -0.475894 
1494299264.368998, 1494299264.368998, -1.120850, +0.029175, -0.106567, -0.057711, -0.162257, -0.475894 
1494299264.372943, 1494299264.372943, -1.120850, +0.029175, -0.106567, -0.271334, -0.070704, -0.384341 
1494299264.376771, 1494299264.376771, -1.120972, +0.020508, -0.104736, -0.271334, -0.070704, -0.384341 
1494299264.380521, 1494299264.380521, -1.120972, +0.020508, -0.104736, -0.271334, -0.070704, -0.384341 
1494299264.384268, 1494299264.384268, -1.120972, +0.020508, -0.104736, -0.317111, -0.131739, -0.704776 
1494299264.388124, 1494299264.388124, -1.120972, +0.020508, -0.104736, -0.317111, -0.131739, -0.704776 
1494299264.391872, 1494299264.391872, -1.120972, +0.020508, -0.104736, -0.317111, -0.131739, -0.704776 
1494299264.395621, 1494299264.395621, -1.121826, +0.025879, -0.105591, -0.652804, -0.024928, -0.903140 
1494299264.399372, 1494299264.399372, -1.121826, +0.025879, -0.105591, -0.652804, -0.024928, -0.903140 
1494299264.403118, 1494299264.403118, -1.121826, +0.025879, -0.105591, -0.652804, -0.024928, -0.903140 
1494299264.407020, 1494299264.407020, -1.121826, +0.025879, -0.105591, -0.545992, +0.097143, -0.750552 
1494299264.410772, 1494299264.410772, -1.121826, +0.025879, -0.105591, -0.545992, +0.097143, -0.750552 
1494299264.414676, 1494299264.414676, -1.126587, +0.019165, -0.108643, -0.545992, +0.097143, -0.750552 
1494299264.418427, 1494299264.418427, -1.126587, +0.019165, -0.108643, -0.134005, +0.005590, -0.628482 
1494299264.422169, 1494299264.422169, -1.126587, +0.019165, -0.108643, -0.134005, +0.005590, -0.628482 
1494299264.426070, 1494299264.426070, -1.126587, +0.019165, -0.108643, -0.134005, +0.005590, -0.460635 
1494299264.430010, 1494299264.430010, -1.126587, +0.019165, -0.108643, +0.018583, +0.081884, -0.460635 
1494299264.433956, 1494299264.433956, -1.095337, +0.020020, -0.109375, +0.018583, +0.081884, -0.460635 
1494299264.438040, 1494299264.438040, -1.123047, +0.020020, -0.109375, +0.339017, -0.330103, -0.430117 
1494299264.441989, 1494299264.441989, -1.123047, +0.020020, -0.109375, +0.339017, -0.330103, -0.430117 
1494299264.445940, 1494299264.445940, -1.123047, +0.020020, -0.109375, +0.339017, -0.330103, -0.430117 
1494299264.449863, 1494299264.449863, -1.123047, +0.020020, -0.109375, +0.430570, -0.406397, -0.628482 
1494299264.453782, 1494299264.453782, -1.123047, +0.023682, -0.102905, +0.430570, -0.406397, -0.628482 
1494299264.457681, 1494299264.457681, -1.119019, +0.023682, -0.102905, +0.430570, -0.406397, -0.628482 
1494299264.461570, 1494299264.461570, -1.119019, +0.023682, -0.102905, -0.027194, -0.070704, -0.506411 
1494299264.465464, 1494299264.465464, -1.119019, +0.023682, -0.102905, -0.027194, -0.070704, -0.506411 
1494299264.469279, 1494299264.469279, -1.119019, +0.023682, -0.102905, -0.027194, -0.070704, -0.643740 
1494299264.473172, 1494299264.473172, -1.119019, +0.023682, -0.103516, -0.195040, -0.146998, -0.643740 
1494299264.477426, 1494299264.477426, -1.122192, +0.022461, -0.103516, -0.195040, -0.146998, -0.643740 
1494299264.481360, 1494299264.481360, -1.122192, +0.022461, -0.103516, -0.927462, +0.158178, -0.506411 
1494299264.485288, 1494299264.485288, -1.122192, +0.022461, -0.103516, -0.927462, +0.158178, -0.506411 
1494299264.489215, 1494299264.489215, -1.122192, +0.022461, -0.103516, -0.927462, +0.158178, -0.506411 
1494299264.493146, 1494299264.493146, -1.122192, +0.029541, -0.106323, -1.751437, -0.131739, -0.445376 
1494299264.497074, 1494299264.497074, -1.125610, +0.029541, -0.106323, -1.751437, -0.131739, -0.445376 
1494299264.500993, 1494299264.500993, -1.125610, +0.029541, -0.106323, -1.751437, -0.131739, -0.445376 
1494299264.504893, 1494299264.504893, -1.125610, +0.029541, -0.106323, -4.253878, +0.051366, -0.262271 
1494299264.508645, 1494299264.508645, -1.125610, +0.029541, -0.106323, -4.253878, +0.051366, -0.262271 
1494299264.513853, 1494299264.513853, -1.124512, +0.035156, -0.106201, -6.969943, -0.070704, +0.027646 
1494299264.519689, 1494299264.519689, -1.124512, +0.035156, -0.106201, -6.969943, -0.070704, +0.027646 
1494299264.523939, 1494299264.523939, -1.124512, +0.035156, -0.106201, -6.969943, -0.452174, +0.317563 
1494299264.528034, 1494299264.528034, -1.124512, +0.035156, -0.106201, -8.251680, -0.452174, +0.317563 
1494299264.531789, 1494299264.531789, -1.124512, +0.035156, -0.106201, -8.251680, -0.452174, +0.317563 
1494299264.536119, 1494299264.536119, -1.127930, +0.038208, -0.106445, -8.999361, +0.249731, +0.271787 
1494299264.539861, 1494299264.539861, -1.127930, +0.038208, -0.106445, -8.999361, +0.249731, +0.271787 
1494299264.543605, 1494299264.543605, -1.127930, +0.038208, -0.106445, -8.999361, +0.249731, +0.271787 
1494299264.547372, 1494299264.547372, -1.127930, +0.038208, -0.106445, -10.128511, +0.112401, +0.164975 
1494299264.551121, 1494299264.551121, -1.127930, +0.038208, -0.106445, -10.128511, +0.112401, +0.164975 
1494299264.555034, 1494299264.555034, -1.121582, +0.031616, -0.100952, -10.128511, +0.112401, +0.164975 
1494299264.558786, 1494299264.558786, -1.121582, +0.031616, -0.100952, -10.342134, +0.310766, +0.119199 
1494299264.562528, 1494299264.562528, -1.121582, +0.031616, -0.100952, -10.342134, +0.310766, +0.119199 
1494299264.566448, 1494299264.566448, -1.121582, +0.031616, -0.100952, -10.342134, +0.310766, +0.119199 
1494299264.570194, 1494299264.570194, -1.121582, +0.031616, -0.100952, -9.945406, +0.371801, -0.155459 
1494299264.573941, 1494299264.573941, -1.121460, +0.014893, -0.110352, -9.945406, +0.371801, -0.155459 
1494299264.577926, 1494299264.577926, -1.121460, +0.014893, -0.110352, -9.945406, +0.371801, -0.155459 
1494299264.581876, 1494299264.581876, -1.121460, +0.014893, -0.110352, -8.221163, +0.387060, -0.262271 
1494299264.585834, 1494299264.585834, -1.121460, +0.014893, -0.110352, -8.221163, +0.387060, -0.262271 
1494299264.589773, 1494299264.589773, -1.121460, +0.014893, -0.110352, -6.359591, +0.295507, -0.842105 
1494299264.593816, 1494299264.593816, -1.125000, -0.000366, -0.103271, -6.359591, +0.295507, -0.842105 
1494299264.597901, 1494299264.597901, -1.125000, -0.000366, -0.103271, -6.359591, +0.295507, -0.842105 
1494299264.601842, 1494299264.601842, -1.125000, -0.000366, -0.103271, -3.963961, +0.615942, -1.025210 
1494299264.605829, 1494299264.605829, -1.125000, -0.000366, -0.103271, -3.963961, +0.615942, -1.025210 
1494299264.609775, 1494299264.609775, -1.125000, -0.000366, -0.103271, -3.963961, +0.615942, -1.025210 
1494299264.613715, 1494299264.613715, -1.123413, +0.010498, -0.101318, -1.171603, +0.081884, -0.872622 
1494299264.617504, 1494299264.617504, -1.123413, +0.010498, -0.101318, -1.171603, +0.081884, -0.872622 
1494299264.621250, 1494299264.621250, -1.123413, +0.010498, -0.101318, -1.171603, +0.081884, -0.872622 
1494299264.625014, 1494299264.625014, -1.123413, +0.010498, -0.101318, +0.003324, +0.219213, -0.781070 
1494299264.628763, 1494299264.628763, -1.123413, +0.010498, -0.101318, +0.003324, +0.219213, -0.781070 
1494299264.632506, 1494299264.632506, -1.121948, +0.024780, -0.105591, +0.003324, +0.219213, -0.704776 
1494299264.636416, 1494299264.636416, -1.121948, +0.024780, -0.105591, +0.567899, -0.192774, -0.704776 
1494299264.640167, 1494299264.640167, -1.121948, +0.024780, -0.105591, +0.567899, -0.192774, -0.704776 
1494299264.643909, 1494299264.643909, -1.121948, +0.024780, -0.105591, +0.567899, +0.020849, -0.979434 
1494299264.647971, 1494299264.647971, -1.121948, +0.024780, -0.105591, +1.224027, +0.020849, -0.979434 
1494299264.651908, 1494299264.651908, -1.121948, +0.019165, -0.103271, +1.224027, +0.020849, -0.979434 
1494299264.655861, 1494299264.655861, -1.125122, +0.019165, -0.103271, +2.002225, +0.188695, -0.872622 
1494299264.659807, 1494299264.659807, -1.125122, +0.019165, -0.103271, +2.002225, +0.188695, -0.872622 
1494299264.663749, 1494299264.663749, -1.125122, +0.019165, -0.103271, +2.002225, +0.188695, -0.872622 
1494299264.667538, 1494299264.667538, -1.125122, +0.019165, -0.103271, +3.222929, +0.188695, -0.964175 
1494299264.671286, 1494299264.671286, -1.125122, +0.019165, -0.108276, +3.222929, +0.188695, -0.964175 
1494299264.675095, 1494299264.675095, -1.120972, +0.016968, -0.108276, +3.222929, +0.188695, -0.964175 
1494299264.679047, 1494299264.679047, -1.120972, +0.016968, -0.108276, +3.695951, +0.203954, -0.872622 
1494299264.682993, 1494299264.682993, -1.120972, +0.016968, -0.108276, +3.695951, +0.203954, -0.872622 
1494299264.686942, 1494299264.686942, -1.120972, +0.016968, -0.108276, +3.695951, +0.203954, -0.872622 
1494299264.690883, 1494299264.690883, -1.120972, +0.016968, -0.108276, +4.291044, +0.142919, -1.208316 
1494299264.694823, 1494299264.694823, -1.123291, +0.023315, -0.105713, +4.291044, +0.142919, -1.208316 
1494299264.698568, 1494299264.698568, -1.123291, +0.023315, -0.105713, +4.291044, +0.127660, -1.376162 
1494299264.702317, 1494299264.702317, -1.123291, +0.023315, -0.105713, +4.703031, +0.127660, -1.376162 
1494299264.706317, 1494299264.706317, -1.123291, +0.023315, -0.105713, +4.703031, +0.127660, -1.376162 
1494299264.710309, 1494299264.710309, -1.123291, +0.023315, -0.105713, +5.115018, -0.024928, -1.452456 
1494299264.714249, 1494299264.714249, -1.123413, +0.024048, -0.112427, +5.115018, -0.024928, -1.452456 
1494299264.718225, 1494299264.718225, -1.123413, +0.024048, -0.112427, +5.115018, -0.024928, -1.452456 
1494299264.721971, 1494299264.721971, -1.123413, +0.024048, -0.112427, +4.977689, +0.020849, -1.696597 
1494299264.725834, 1494299264.725834, -1.123413, +0.024048, -0.112427, +4.977689, +0.020849, -1.696597 
1494299264.729775, 1494299264.729775, -1.123413, +0.024048, -0.112427, +4.977689, +0.020849, -1.696597 
1494299264.733717, 1494299264.733717, -1.122681, +0.022339, -0.108032, +5.511747, +0.249731, -1.360904 
1494299264.737672, 1494299264.737672, -1.122681, +0.022339, -0.108032, +5.511747, +0.249731, -1.360904 
1494299264.741616, 1494299264.741616, -1.122681, +0.022339, -0.108032, +5.511747, +0.249731, -1.101504 
1494299264.745544, 1494299264.745544, -1.122681, +0.022339, -0.108032, +5.420194, +0.570165, -1.101504 
1494299264.749410, 1494299264.749410, -1.122681, +0.022339, -0.108032, +5.420194, +0.570165, -1.101504 
1494299264.753159, 1494299264.753159, -1.125488, +0.024780, -0.103760, +5.420194, +0.509130, -1.208316 
1494299264.756962, 1494299264.756962, -1.125488, +0.024780, -0.103760, +4.413114, +0.509130, -1.208316 
1494299264.760704, 1494299264.760704, -1.125488, +0.024780, -0.103760, +4.413114, +0.509130, -1.208316 
1494299264.764524, 1494299264.764524, -1.125488, +0.024780, -0.103760, +4.168973, +0.554906, -1.101504 
1494299264.768289, 1494299264.768289, -1.125488, +0.024780, -0.103760, +4.168973, +0.554906, -1.101504 
1494299264.772041, 1494299264.772041, -1.122192, +0.027222, -0.107056, +4.168973, +0.554906, -1.101504 
1494299264.775973, 1494299264.775973, -1.122192, +0.027222, -0.107056, +3.680692, +0.676977, -1.254092 
1494299264.779927, 1494299264.779927, -1.122192, +0.027222, -0.107056, +3.680692, +0.676977, -1.254092 
1494299264.783871, 1494299264.783871, -1.122192, +0.027222, -0.107056, +3.680692, +0.676977, -1.254092 
1494299264.787819, 1494299264.787819, -1.122192, +0.027222, -0.107056, +3.192411, +0.738012, -1.101504 
1494299264.791762, 1494299264.791762, -1.127563, +0.026245, -0.110107, +3.192411, +0.738012, -1.101504 
1494299264.795716, 1494299264.795716, -1.127563, +0.026245, -0.110107, +3.192411, +0.738012, -1.101504 
1494299264.799656, 1494299264.799656, -1.127563, +0.026245, -0.110107, +2.444730, +0.188695, -1.040469 
1494299264.803595, 1494299264.803595, -1.127563, +0.026245, -0.110107, +2.444730, +0.188695, -1.040469 
1494299264.807387, 1494299264.807387, -1.127563, +0.026245, -0.110107, +2.444730, +0.188695, -0.979434 
1494299264.811129, 1494299264.811129, -1.125000, +0.019409, -0.105591, +2.215848, +0.188695, -0.979434 
1494299264.814879, 1494299264.814879, -1.125000, +0.019409, -0.105591, +2.215848, +0.188695, -0.979434 
1494299264.818622, 1494299264.818622, -1.125000, +0.019409, -0.105591, +1.880155, +0.341283, -0.948916 
1494299264.822363, 1494299264.822363, -1.125000, +0.019409, -0.105591, +1.880155, +0.341283, -0.948916 
1494299264.826230, 1494299264.826230, -1.125000, +0.019409, -0.105591, +1.880155, +0.341283, -0.948916 
1494299264.829979, 1494299264.829979, -1.125000, +0.019409, -0.105591, +2.063261, +0.249731, -0.613223 
1494299264.833728, 1494299264.833728, -1.126709, +0.018921, -0.107666, +2.063261, +0.249731, -0.613223 
1494299264.837688, 1494299264.837688, -1.126709, +0.018921, -0.107666, +2.063261, +0.249731, -0.613223 
1494299264.841739, 1494299264.841739, -1.126709, +0.018921, -0.107666, +1.697050, +0.249731, -0.445376 
1494299264.845697, 1494299264.845697, -1.126709, +0.018921, -0.107666, +1.697050, +0.249731, -0.445376 
1494299264.849639, 1494299264.849639, -1.126709, +0.018921, -0.107666, +1.697050, +0.249731, -0.445376 
1494299264.853581, 1494299264.853581, -1.125610, +0.020508, -0.105469, +1.819120, +0.249731, -0.536929 
1494299264.857535, 1494299264.857535, -1.125610, +0.020508, -0.105469, +1.819120, +0.249731, -0.536929 
1494299264.861471, 1494299264.861471, -1.125610, +0.020508, -0.105469, +1.819120, +0.249731, -0.674258 
1494299264.865378, 1494299264.865378, -1.125610, +0.020508, -0.105469, +1.605497, +0.432836, -0.674258 
1494299264.869125, 1494299264.869125, -1.125610, +0.020508, -0.105469, +1.605497, +0.432836, -0.674258 
1494299264.872872, 1494299264.872872, -1.127319, +0.027954, -0.109497, +1.605497, +0.539648, -1.009951 
1494299264.876623, 1494299264.876623, -1.127319, +0.027954, -0.109497, +1.407133, +0.539648, -1.009951 
1494299264.880363, 1494299264.880363, -1.127319, +0.027954, -0.109497, +1.407133, +0.539648, -1.009951 
1494299264.884105, 1494299264.884105, -1.127319, +0.027954, -0.109497, +1.361356, +0.585424, -1.284610 
1494299264.887983, 1494299264.887983, -1.127319, +0.027954, -0.109497, +1.361356, +0.585424, -1.284610 
1494299264.891730, 1494299264.891730, -1.127197, +0.020874, -0.110962, +1.361356, +0.585424, -1.284610 
1494299264.895549, 1494299264.895549, -1.127197, +0.020874, -0.110962, +1.452909, +0.234472, -1.452456 
1494299264.899603, 1494299264.899603, -1.127197, +0.020874, -0.110962, +1.452909, +0.234472, -1.452456 
1494299264.903547, 1494299264.903547, -1.127197, +0.020874, -0.110962, +1.452909, +0.234472, -1.452456 
1494299264.907501, 1494299264.907501, -1.127197, +0.020874, -0.110962, +1.636014, +0.371801, -1.452456 
1494299264.911444, 1494299264.911444, -1.125610, +0.017578, -0.105103, +1.636014, +0.371801, -1.452456 
1494299264.915346, 1494299264.915346, -1.125610, +0.017578, -0.105103, +1.636014, +0.371801, -1.452456 
1494299264.919090, 1494299264.919090, -1.125610, +0.017578, -0.105103, +1.483427, +0.432836, -1.315127 
1494299264.922831, 1494299264.922831, -1.125610, +0.017578, -0.105103, +1.483427, +0.432836, -1.315127 
1494299264.926727, 1494299264.926727, -1.125610, +0.017578, -0.105103, +1.483427, +0.432836, -1.070987 
1494299264.930669, 1494299264.930669, -1.122070, +0.019775, -0.108887, +1.758085, +0.264989, -1.070987 
1494299264.934624, 1494299264.934624, -1.122070, +0.019775, -0.108887, +1.758085, +0.264989, -1.070987 
1494299264.938572, 1494299264.938572, -1.122070, +0.019775, -0.108887, +1.910673, +0.234472, -0.857363 
1494299264.942511, 1494299264.942511, -1.122070, +0.019775, -0.108887, +1.910673, +0.234472, -0.857363 
1494299264.946365, 1494299264.946365, -1.122070, +0.019775, -0.108887, +1.910673, +0.234472, -0.857363 
1494299264.950104, 1494299264.950104, -1.122070, +0.023560, -0.105957, +1.636014, +0.295507, -0.872622 
1494299264.953848, 1494299264.953848, -1.121460, +0.023560, -0.105957, +1.636014, +0.295507, -0.872622 
1494299264.957797, 1494299264.957797, -1.121460, +0.023560, -0.105957, +1.636014, +0.295507, -0.872622 
1494299264.961748, 1494299264.961748, -1.121460, +0.023560, -0.105957, +1.391874, +0.753271, -0.643740 
1494299264.965648, 1494299264.965648, -1.121460, +0.023560, -0.105957, +1.391874, +0.753271, -0.643740 
1494299264.969394, 1494299264.969394, -1.121460, +0.023560, -0.109741, +1.391874, +0.753271, -0.643740 
1494299264.973139, 1494299264.973139, -1.119629, +0.021606, -0.109741, +1.681791, +0.570165, -0.643740 
1494299264.977065, 1494299264.977065, -1.119629, +0.021606, -0.109741, +1.681791, +0.570165, -0.643740 
1494299264.981003, 1494299264.981003, -1.119629, +0.021606, -0.109741, +1.681791, +0.570165, -0.658999 
1494299264.984994, 1494299264.984994, -1.119629, +0.021606, -0.109741, +1.697050, +0.341283, -0.658999 
1494299264.988935, 1494299264.988935, -1.119629, +0.021606, -0.104980, +1.697050, +0.341283, -0.658999 
1494299264.992883, 1494299264.992883, -1.124023, +0.019531, -0.104980, +1.162992, +0.326025, -0.704776 
1494299264.996843, 1494299264.996843, -1.124023, +0.019531, -0.104980, +1.162992, +0.326025, -0.704776 
1494299265.000787, 1494299265.000787, -1.124023, +0.019531, -0.104980, +1.162992, +0.326025, -0.704776 
1494299265.004731, 1494299265.004731, -1.124023, +0.019531, -0.104980, +1.101957, +0.432836, -0.765811 
1494299265.008675, 1494299265.008675, -1.124023, +0.019531, -0.104980, +1.101957, +0.432836, -0.765811 
1494299265.012619, 1494299265.012619, -1.119019, +0.023804, -0.107788, +1.101957, +0.432836, -0.765811 
1494299265.016492, 1494299265.016492, -1.119019, +0.023804, -0.107788, +1.849638, +0.280248, -0.857363 
1494299265.020237, 1494299265.020237, -1.119019, +0.023804, -0.107788, +1.849638, +0.280248, -0.857363 
1494299265.023980, 1494299265.023980, -1.119019, +0.023804, -0.107788, +1.849638, +0.280248, -0.857363 
1494299265.027937, 1494299265.027937, -1.119019, +0.023804, -0.107788, +1.605497, +0.158178, -0.857363 
1494299265.031878, 1494299265.031878, -1.121704, +0.022217, -0.112549, +1.605497, +0.158178, -0.857363 
1494299265.035833, 1494299265.035833, -1.121704, +0.022217, -0.112549, +1.605497, +0.158178, -1.116763 
1494299265.039776, 1494299265.039776, -1.121704, +0.022217, -0.112549, +1.132474, +0.142919, -1.116763 
1494299265.043723, 1494299265.043723, -1.121704, +0.022217, -0.112549, +1.132474, +0.142919, -1.116763 
1494299265.047682, 1494299265.047682, -1.121704, +0.022217, -0.112549, +0.766263, -0.131739, -0.964175 
1494299265.051627, 1494299265.051627, -1.122803, +0.017578, -0.105591, +0.766263, -0.131739, -0.964175 
1494299265.055687, 1494299265.055687, -1.122803, +0.017578, -0.105591, +0.766263, -0.131739, -0.964175 
1494299265.059637, 1494299265.059637, -1.122803, +0.017578, -0.105591, +0.903593, +0.219213, -0.994693 
1494299265.063581, 1494299265.063581, -1.122803, +0.017578, -0.105591, +0.903593, +0.219213, -0.994693 
1494299265.067387, 1494299265.067387, -1.122803, +0.017578, -0.105591, +0.903593, +0.219213, -0.994693 
1494299265.071130, 1494299265.071130, -1.122925, +0.020142, -0.110718, +1.086698, +0.066625, -1.025210 
1494299265.074874, 1494299265.074874, -1.122925, +0.020142, -0.110718, +1.086698, +0.066625, -1.025210 
1494299265.078624, 1494299265.078624, -1.122925, +0.020142, -0.110718, +1.086698, +0.066625, -1.025210 
1494299265.082368, 1494299265.082368, -1.122925, +0.020142, -0.110718, +0.979887, +0.417577, -1.025210 
1494299265.086267, 1494299265.086267, -1.122925, +0.020142, -0.110718, +0.979887, +0.417577, -1.025210 
1494299265.090210, 1494299265.090210, -1.123901, +0.022583, -0.105957, +0.979887, +0.417577, -0.826846 
1494299265.094156, 1494299265.094156, -1.123901, +0.022583, -0.105957, +1.010404, -0.055445, -0.826846 
1494299265.098109, 1494299265.098109, -1.123901, +0.022583, -0.105957, +1.010404, -0.055445, -0.826846 
1494299265.102052, 1494299265.102052, -1.123901, +0.022583, -0.105957, +1.010404, -0.024928, -1.055728 
1494299265.106012, 1494299265.106012, -1.123901, +0.022583, -0.105957, +1.010404, -0.024928, -1.055728 
1494299265.109956, 1494299265.109956, -1.122192, +0.021240, -0.104858, +1.010404, -0.024928, -1.055728 
1494299265.113897, 1494299265.113897, -1.122192, +0.021240, -0.104858, +0.781522, +0.295507, -1.238833 
1494299265.117678, 1494299265.117678, -1.122192, +0.021240, -0.104858, +0.781522, +0.295507, -1.238833 
1494299265.121427, 1494299265.121427, -1.122192, +0.021240, -0.104858, +0.781522, +0.295507, -1.238833 
1494299265.125251, 1494299265.125251, -1.122192, +0.021240, -0.104858, +0.567899, +0.264989, -1.177798 
1494299265.129197, 1494299265.129197, -1.125122, +0.020142, -0.110840, +0.567899, +0.264989, -1.177798 
1494299265.133142, 1494299265.133142, -1.125122, +0.020142, -0.110840, +0.567899, +0.264989, -1.177798 
1494299265.137097, 1494299265.137097, -1.125122, +0.020142, -0.110840, +0.583158, +0.219213, -1.132022 
1494299265.141038, 1494299265.141038, -1.125122, +0.020142, -0.110840, +0.583158, +0.219213, -1.132022 
1494299265.144994, 1494299265.144994, -1.125122, +0.020142, -0.110840, +0.583158, -0.040186, -1.223574 
1494299265.148937, 1494299265.148937, -1.121338, +0.019409, -0.108032, +0.583158, -0.040186, -1.223574 
1494299265.152878, 1494299265.152878, -1.121338, +0.019409, -0.108032, +0.583158, -0.040186, -1.223574 
1494299265.156835, 1494299265.156835, -1.121338, +0.019409, -0.108032, +0.400053, +0.158178, -1.208316 
1494299265.160776, 1494299265.160776, -1.121338, +0.019409, -0.108032, +0.400053, +0.158178, -1.208316 
1494299265.164704, 1494299265.164704, -1.121338, +0.019409, -0.108032, +0.400053, +0.158178, -1.208316 
1494299265.168452, 1494299265.168452, -1.121338, +0.017578, -0.108765, +0.674711, -0.116480, -1.040469 
1494299265.172199, 1494299265.172199, -1.123901, +0.017578, -0.108765, +0.674711, -0.116480, -1.040469 
1494299265.176053, 1494299265.176053, -1.123901, +0.017578, -0.108765, +0.674711, -0.116480, -1.040469 
1494299265.179991, 1494299265.179991, -1.123901, +0.017578, -0.108765, +0.537382, -0.177516, -1.208316 
1494299265.183940, 1494299265.183940, -1.123901, +0.017578, -0.108765, +0.537382, -0.177516, -1.208316 
1494299265.187894, 1494299265.187894, -1.123901, +0.017578, -0.109253, +0.537382, -0.177516, -1.040469 
1494299265.191834, 1494299265.191834, -1.124023, +0.023315, -0.109253, +0.567899, +0.142919, -1.040469 
1494299265.195829, 1494299265.195829, -1.124023, +0.023315, -0.109253, +0.567899, +0.142919, -1.040469 
1494299265.199776, 1494299265.199776, -1.124023, +0.023315, -0.109253, +0.552640, +0.142919, -1.482974 
1494299265.203715, 1494299265.203715, -1.124023, +0.023315, -0.109253, +0.552640, +0.142919, -1.482974 
1494299265.207785, 1494299265.207785, -1.124023, +0.017700, -0.108521, +0.552640, +0.142919, -1.482974 
1494299265.211738, 1494299265.211738, -1.125122, +0.017700, -0.108521, +0.827299, -0.146998, -1.544009 
1494299265.215643, 1494299265.215643, -1.125122, +0.017700, -0.108521, +0.827299, -0.146998, -1.544009 
1494299265.219390, 1494299265.219390, -1.125122, +0.017700, -0.108521, +0.827299, -0.146998, -1.544009 
1494299265.223136, 1494299265.223136, -1.125122, +0.017700, -0.108521, +0.903593, -0.391139, -1.513491 
1494299265.227077, 1494299265.227077, -1.125122, +0.017700, -0.108521, +0.903593, -0.391139, -1.513491 
1494299265.231016, 1494299265.231016, -1.124390, +0.018677, -0.110352, +0.903593, -0.391139, -1.513491 
1494299265.235003, 1494299265.235003, -1.124390, +0.018677, -0.110352, +0.751005, -0.177516, -1.528750 
1494299265.238949, 1494299265.238949, -1.124390, +0.018677, -0.110352, +0.751005, -0.177516, -1.528750 
1494299265.242889, 1494299265.242889, -1.124390, +0.018677, -0.110352, +0.751005, -0.253809, -1.620303 
1494299265.246841, 1494299265.246841, -1.124390, +0.018677, -0.110352, +0.476346, -0.253809, -1.620303 
1494299265.250787, 1494299265.250787, -1.126709, +0.017578, -0.103271, +0.476346, -0.253809, -1.620303 
1494299265.254730, 1494299265.254730, -1.126709, +0.017578, -0.103271, +0.323759, -0.192774, -2.062808 
1494299265.258676, 1494299265.258676, -1.126709, +0.017578, -0.103271, +0.323759, -0.192774, -2.062808 
1494299265.262618, 1494299265.262618, -1.126709, +0.017578, -0.103271, +0.323759, -0.192774, -2.062808 
1494299265.266492, 1494299265.266492, -1.126709, +0.017578, -0.103271, +0.918851, -0.085963, -1.360904 
1494299265.270233, 1494299265.270233, -1.123413, +0.011108, -0.111206, +0.918851, -0.085963, -1.360904 
1494299265.273978, 1494299265.273978, -1.123413, +0.011108, -0.111206, +0.918851, -0.085963, -1.360904 
1494299265.277933, 1494299265.277933, -1.123413, +0.011108, -0.111206, +0.964628, -0.131739, -1.070987 
1494299265.281877, 1494299265.281877, -1.123413, +0.011108, -0.111206, +0.964628, -0.131739, -1.070987 
1494299265.285833, 1494299265.285833, -1.123413, +0.011108, -0.111206, +0.964628, -0.131739, -1.070987 
1494299265.289779, 1494299265.289779, -1.121948, +0.016968, -0.108276, +1.162992, -0.024928, -1.147280 
1494299265.293722, 1494299265.293722, -1.121948, +0.016968, -0.108276, +1.162992, -0.024928, -1.147280 
1494299265.297680, 1494299265.297680, -1.121948, +0.016968, -0.108276, +0.979887, +0.081884, -1.116763 
1494299265.301618, 1494299265.301618, -1.121948, +0.016968, -0.108276, +0.979887, +0.081884, -1.116763 
1494299265.305663, 1494299265.305663, -1.121948, +0.016968, -0.108276, +0.979887, +0.081884, -1.116763 
1494299265.309608, 1494299265.309608, -1.120361, +0.015381, -0.109131, +0.842557, +0.142919, -1.101504 
1494299265.313552, 1494299265.313552, -1.120361, +0.015381, -0.109131, +0.842557, +0.142919, -1.101504 
1494299265.317356, 1494299265.317356, -1.120361, +0.015381, -0.109131, +0.842557, +0.142919, -1.101504 
1494299265.321106, 1494299265.321106, -1.120361, +0.015381, -0.109131, +0.735746, +0.127660, -1.025210 
1494299265.324862, 1494299265.324862, -1.120361, +0.015381, -0.109131, +0.735746, +0.127660, -1.025210 
1494299265.328611, 1494299265.328611, -1.123413, +0.021484, -0.108887, +0.735746, +0.127660, -1.025210 
1494299265.332356, 1494299265.332356, -1.123413, +0.021484, -0.108887, +0.766263, +0.097143, -0.964175 
1494299265.336239, 1494299265.336239, -1.123413, +0.021484, -0.108887, +0.766263, +0.097143, -0.964175 
1494299265.340180, 1494299265.340180, -1.123413, +0.021484, -0.108887, +0.766263, +0.097143, -0.964175 
1494299265.344121, 1494299265.344121, -1.123413, +0.021484, -0.108887, +0.583158, -0.269068, -1.269351 
1494299265.348077, 1494299265.348077, -1.121826, +0.012329, -0.105225, +0.583158, -0.269068, -1.269351 
1494299265.352020, 1494299265.352020, -1.121826, +0.012329, -0.105225, +0.583158, -0.360621, -0.918399 
1494299265.356001, 1494299265.356001, -1.121826, +0.012329, -0.105225, +0.369535, -0.360621, -0.918399 
1494299265.360046, 1494299265.360046, -1.121826, +0.012329, -0.105225, +0.369535, -0.360621, -0.918399 
1494299265.363990, 1494299265.363990, -1.121826, +0.012329, -0.105225, +0.583158, -0.085963, -0.735293 
1494299265.367763, 1494299265.367763, -1.123779, +0.015503, -0.109741, +0.583158, -0.085963, -0.735293 
1494299265.371509, 1494299265.371509, -1.123779, +0.015503, -0.109741, +0.583158, -0.085963, -0.735293 
1494299265.375306, 1494299265.375306, -1.123779, +0.015503, -0.109741, +0.659452, -0.040186, -0.658999 
1494299265.379225, 1494299265.379225, -1.123779, +0.015503, -0.109741, +0.659452, -0.040186, -0.658999 
1494299265.383145, 1494299265.383145, -1.123779, +0.015503, -0.109741, +0.659452, -0.040186, -0.658999 
1494299265.387044, 1494299265.387044, -1.122314, +0.017944, -0.109253, +0.644193, -0.070704, -0.628482 
1494299265.390922, 1494299265.390922, -1.122314, +0.017944, -0.109253, +0.644193, -0.070704, -0.628482 
1494299265.394842, 1494299265.394842, -1.122314, +0.017944, -0.109253, +0.644193, -0.070704, -0.567446 
1494299265.398786, 1494299265.398786, -1.122314, +0.017944, -0.109253, +0.720487, -0.146998, -0.567446 
1494299265.402732, 1494299265.402732, -1.122314, +0.017944, -0.109253, +0.720487, -0.146998, -0.567446 
1494299265.406689, 1494299265.406689, -1.122314, +0.016968, -0.105835, +0.415311, -0.101222, -0.475894 
1494299265.410632, 1494299265.410632, -1.123047, +0.016968, -0.105835, +0.415311, -0.101222, -0.475894 
1494299265.414586, 1494299265.414586, -1.123047, +0.016968, -0.105835, +0.415311, -0.101222, -0.475894 
1494299265.418336, 1494299265.418336, -1.123047, +0.016968, -0.105835, +0.308500, -0.101222, -0.475894 
1494299265.422091, 1494299265.422091, -1.123047, +0.016968, -0.105835, +0.308500, -0.101222, -0.475894 
1494299265.425916, 1494299265.425916, -1.123047, +0.016968, -0.105713, +0.308500, -0.101222, -0.475894 
1494299265.429857, 1494299265.429857, -1.124023, +0.018311, -0.105713, +0.506864, +0.341283, -0.720034 
1494299265.433797, 1494299265.433797, -1.124023, +0.018311, -0.105713, +0.506864, +0.341283, -0.720034 
1494299265.437745, 1494299265.437745, -1.124023, +0.018311, -0.105713, +0.506864, +0.341283, -0.720034 
1494299265.441691, 1494299265.441691, -1.124023, +0.018311, -0.105713, +0.827299, +0.234472, -0.689517 
1494299265.445635, 1494299265.445635, -1.124023, +0.018311, -0.109253, +0.827299, +0.234472, -0.689517 
1494299265.449575, 1494299265.449575, -1.121704, +0.015137, -0.109253, +0.827299, +0.234472, -0.643740 
1494299265.453521, 1494299265.453521, -1.121704, +0.015137, -0.109253, +0.461088, -0.024928, -0.643740 
1494299265.457479, 1494299265.457479, -1.121704, +0.015137, -0.109253, +0.461088, -0.024928, -0.643740 
1494299265.461422, 1494299265.461422, -1.121704, +0.015137, -0.109253, +0.186430, +0.310766, -0.643740 
1494299265.465371, 1494299265.465371, -1.121704, +0.015137, -0.104492, +0.186430, +0.310766, -0.643740 
1494299265.469115, 1494299265.469115, -1.119385, +0.014893, -0.104492, +0.186430, +0.310766, -0.643740 
1494299265.472862, 1494299265.472862, -1.119385, +0.014893, -0.104492, +0.400053, +0.295507, -0.567446 
1494299265.476721, 1494299265.476721, -1.119385, +0.014893, -0.104492, +0.400053, +0.295507, -0.567446 
1494299265.480640, 1494299265.480640, -1.119385, +0.014893, -0.104492, +0.400053, +0.295507, -0.567446 
1494299265.484606, 1494299265.484606, -1.119385, +0.014893, -0.104492, +0.766263, +0.203954, -0.430117 
1494299265.488492, 1494299265.488492, -1.125366, +0.018433, -0.111328, +0.766263, +0.203954, -0.430117 
1494299265.492385, 1494299265.492385, -1.125366, +0.018433, -0.111328, +0.766263, +0.203954, -0.430117 
1494299265.496308, 1494299265.496308, -1.125366, +0.018433, -0.111328, +0.247465, +0.264989, -0.491153 
1494299265.500250, 1494299265.500250, -1.125366, +0.018433, -0.111328, +0.247465, +0.264989, -0.491153 
1494299265.504194, 1494299265.504194, -1.125366, +0.018433, -0.111328, +0.247465, +0.264989, -0.536929 
1494299265.508140, 1494299265.508140, -1.122681, +0.017456, -0.111694, +0.674711, -0.055445, -0.536929 
1494299265.512079, 1494299265.512079, -1.122681, +0.017456, -0.111694, +0.674711, -0.055445, -0.536929 
1494299265.516061, 1494299265.516061, -1.122681, +0.017456, -0.111694, +0.873075, +0.173437, -0.506411 
1494299265.519813, 1494299265.519813, -1.122681, +0.017456, -0.111694, +0.873075, +0.173437, -0.506411 
1494299265.523554, 1494299265.523554, -1.122681, +0.017456, -0.111694, +0.873075, +0.173437, -0.506411 
1494299265.527466, 1494299265.527466, -1.119751, +0.021240, -0.107178, +0.659452, -0.009669, -0.399600 
1494299265.531412, 1494299265.531412, -1.119751, +0.021240, -0.107178, +0.659452, -0.009669, -0.399600 
1494299265.535404, 1494299265.535404, -1.119751, +0.021240, -0.107178, +0.659452, -0.009669, -0.399600 
1494299265.539347, 1494299265.539347, -1.119751, +0.021240, -0.107178, +0.430570, -0.146998, -0.369082 
1494299265.543293, 1494299265.543293, -1.119751, +0.021240, -0.107178, +0.430570, -0.146998, -0.369082 
1494299265.547253, 1494299265.547253, -1.121216, +0.016968, -0.104492, +0.430570, -0.146998, -0.369082 
1494299265.551197, 1494299265.551197, -1.121216, +0.016968, -0.104492, +0.201688, -0.223292, -0.628482 
1494299265.555188, 1494299265.555188, -1.121216, +0.016968, -0.104492, +0.201688, -0.223292, -0.628482 
1494299265.559131, 1494299265.559131, -1.121216, +0.016968, -0.104492, +0.384794, -0.070704, -0.628482 
1494299265.563077, 1494299265.563077, -1.121216, +0.016968, -0.104492, +0.384794, -0.070704, -0.628482 
1494299265.566902, 1494299265.566902, -1.122070, +0.014771, -0.107910, +0.384794, -0.070704, -0.628482 
1494299265.570650, 1494299265.570650, -1.122070, +0.014771, -0.107910, +0.247465, -0.223292, -0.704776 
1494299265.574391, 1494299265.574391, -1.122070, +0.014771, -0.107910, +0.247465, -0.223292, -0.704776 
1494299265.578138, 1494299265.578138, -1.122070, +0.014771, -0.107910, +0.247465, -0.223292, -0.704776 
1494299265.581878, 1494299265.581878, -1.122070, +0.014771, -0.107910, +0.232206, -0.040186, -0.567446 
1494299265.585693, 1494299265.585693, -1.123657, +0.015137, -0.111572, +0.232206, -0.040186, -0.567446 
1494299265.589637, 1494299265.589637, -1.123657, +0.015137, -0.111572, +0.232206, -0.040186, -0.567446 
1494299265.593582, 1494299265.593582, -1.123657, +0.015137, -0.111572, +0.125394, -0.040186, -0.460635 
1494299265.597546, 1494299265.597546, -1.123657, +0.015137, -0.111572, +0.125394, -0.040186, -0.460635 
1494299265.601487, 1494299265.601487, -1.123657, +0.015137, -0.111572, +0.125394, -0.040186, -0.460635 
1494299265.605441, 1494299265.605441, -1.124023, +0.015869, -0.109497, +0.552640, -0.101222, -0.002871 
1494299265.609388, 1494299265.609388, -1.124023, +0.015869, -0.109497, +0.552640, -0.101222, -0.002871 
1494299265.613330, 1494299265.613330, -1.124023, +0.015869, -0.109497, +0.552640, -0.284327, -0.201236 
1494299265.617290, 1494299265.617290, -1.124023, +0.015869, -0.109497, +0.506864, -0.284327, -0.201236 
1494299265.621232, 1494299265.621232, -1.124023, +0.015869, -0.109497, +0.506864, -0.284327, -0.201236 
1494299265.625186, 1494299265.625186, -1.122070, +0.022461, -0.107910, +0.201688, +0.005590, -0.277529 
1494299265.628942, 1494299265.628942, -1.122070, +0.022461, -0.107910, +0.201688, +0.005590, -0.277529 
1494299265.632693, 1494299265.632693, -1.122070, +0.022461, -0.107910, +0.201688, +0.005590, -0.277529 
1494299265.636612, 1494299265.636612, -1.122070, +0.022461, -0.107910, +0.552640, +0.112401, -0.323306 
1494299265.640559, 1494299265.640559, -1.122070, +0.022461, -0.107910, +0.552640, +0.112401, -0.323306 
1494299265.644557, 1494299265.644557, -1.122070, +0.019775, -0.102783, +0.552640, +0.112401, -0.323306 
1494299265.648503, 1494299265.648503, -1.121460, +0.019775, -0.102783, +0.201688, -0.208033, -0.643740 
1494299265.652444, 1494299265.652444, -1.121460, +0.019775, -0.102783, +0.201688, -0.208033, -0.643740 
1494299265.656429, 1494299265.656429, -1.121460, +0.019775, -0.102783, +0.201688, -0.208033, -0.689517 
1494299265.660372, 1494299265.660372, -1.121460, +0.019775, -0.102783, -0.072970, -0.131739, -0.689517 
1494299265.664327, 1494299265.664327, -1.121460, +0.020508, -0.105957, -0.072970, -0.131739, -0.689517 
1494299265.668381, 1494299265.668381, -1.120605, +0.020508, -0.105957, +0.186430, -0.009669, -0.521670 
1494299265.672331, 1494299265.672331, -1.120605, +0.020508, -0.105957, +0.186430, -0.009669, -0.521670 
1494299265.676205, 1494299265.676205, -1.120605, +0.020508, -0.105957, +0.186430, -0.009669, -0.521670 
1494299265.679959, 1494299265.679959, -1.120605, +0.020508, -0.105957, +0.506864, +0.081884, -0.689517 
1494299265.683705, 1494299265.683705, -1.120605, +0.020508, -0.108276, +0.506864, +0.081884, -0.689517 
1494299265.687493, 1494299265.687493, -1.126221, +0.018066, -0.108276, +0.506864, +0.081884, -0.689517 
1494299265.691238, 1494299265.691238, -1.126221, +0.018066, -0.108276, +0.125394, +0.066625, -0.842105 
1494299265.695029, 1494299265.695029, -1.126221, +0.018066, -0.108276, +0.125394, +0.066625, -0.842105 
1494299265.698974, 1494299265.698974, -1.126221, +0.018066, -0.108276, +0.125394, +0.066625, -0.842105 
1494299265.702916, 1494299265.702916, -1.126221, +0.018066, -0.108276, +0.628934, +0.036108, -0.399600 
1494299265.706871, 1494299265.706871, -1.122070, +0.014893, -0.101929, +0.628934, +0.036108, -0.399600 
1494299265.710810, 1494299265.710810, -1.122070, +0.014893, -0.101929, +0.628934, +0.036108, -0.369082 
1494299265.714803, 1494299265.714803, -1.122070, +0.014893, -0.101929, +0.567899, -0.330103, -0.369082 
1494299265.718746, 1494299265.718746, -1.122070, +0.014893, -0.101929, +0.567899, -0.330103, -0.369082 
1494299265.722690, 1494299265.722690, -1.122070, +0.014893, -0.101929, +0.659452, -0.314845, -0.155459 
1494299265.726540, 1494299265.726540, -1.123901, +0.016846, -0.106934, +0.659452, -0.314845, -0.155459 
1494299265.730283, 1494299265.730283, -1.123901, +0.016846, -0.106934, +0.659452, -0.314845, -0.155459 
1494299265.734029, 1494299265.734029, -1.123901, +0.016846, -0.106934, +0.308500, -0.299586, -0.155459 
1494299265.737965, 1494299265.737965, -1.123901, +0.016846, -0.106934, +0.308500, -0.299586, -0.155459 
1494299265.741912, 1494299265.741912, -1.123901, +0.016846, -0.106934, +0.308500, -0.299586, -0.155459 
1494299265.745868, 1494299265.745868, -1.124268, +0.019043, -0.108521, +0.552640, -0.177516, -0.277529 
1494299265.749813, 1494299265.749813, -1.124268, +0.019043, -0.108521, +0.552640, -0.177516, -0.277529 
1494299265.753763, 1494299265.753763, -1.124268, +0.019043, -0.108521, +0.552640, -0.177516, -0.277529 
1494299265.757710, 1494299265.757710, -1.124268, +0.019043, -0.108521, +0.384794, +0.127660, -0.262271 
1494299265.761651, 1494299265.761651, -1.124268, +0.019043, -0.108521, +0.384794, +0.127660, -0.262271 
1494299265.765605, 1494299265.765605, -1.124146, +0.016968, -0.108643, +0.384794, +0.158178, -0.033389 
1494299265.769554, 1494299265.769554, -1.124146, +0.016968, -0.108643, +0.354276, +0.158178, -0.033389 
1494299265.773498, 1494299265.773498, -1.124146, +0.016968, -0.108643, +0.354276, +0.158178, -0.033389 
1494299265.777294, 1494299265.777294, -1.124146, +0.016968, -0.108643, +0.125394, -0.192774, +0.088681 
1494299265.781048, 1494299265.781048, -1.124146, +0.016968, -0.108643, +0.125394, -0.192774, +0.088681 
1494299265.784839, 1494299265.784839, -1.120972, +0.020874, -0.113037, +0.125394, -0.192774, +0.088681 
1494299265.788788, 1494299265.788788, -1.120972, +0.020874, -0.113037, +0.384794, -0.009669, +0.256528 
1494299265.792735, 1494299265.792735, -1.120972, +0.020874, -0.113037, +0.384794, -0.009669, +0.256528 
1494299265.796686, 1494299265.796686, -1.120972, +0.020874, -0.113037, +0.384794, -0.009669, +0.256528 
1494299265.800636, 1494299265.800636, -1.120972, +0.020874, -0.113037, +0.293241, +0.020849, +0.226011 
1494299265.804592, 1494299265.804592, -1.121582, +0.020386, -0.105347, +0.293241, +0.020849, +0.226011 
1494299265.808531, 1494299265.808531, -1.121582, +0.020386, -0.105347, +0.293241, +0.020849, +0.226011 
1494299265.812476, 1494299265.812476, -1.121582, +0.020386, -0.105347, +0.842557, -0.070704, +0.576963 
1494299265.816438, 1494299265.816438, -1.121582, +0.020386, -0.105347, +0.842557, -0.070704, +0.576963 
1494299265.820389, 1494299265.820389, -1.121582, +0.020386, -0.105347, +0.476346, +0.112401, +0.287046 
1494299265.824453, 1494299265.824453, -1.120728, +0.013794, -0.108154, +0.476346, +0.112401, +0.287046 
1494299265.828202, 1494299265.828202, -1.120728, +0.013794, -0.108154, +0.476346, +0.112401, +0.287046 
1494299265.831955, 1494299265.831955, -1.120728, +0.013794, -0.108154, +0.094877, +0.142919, +0.317563 
1494299265.835856, 1494299265.835856, -1.120728, +0.013794, -0.108154, +0.094877, +0.142919, +0.317563 
1494299265.839798, 1494299265.839798, -1.120728, +0.013794, -0.108154, +0.094877, +0.142919, +0.317563 
1494299265.843742, 1494299265.843742, -1.119873, +0.025269, -0.109863, +0.293241, +0.112401, +0.195493 
1494299265.847704, 1494299265.847704, -1.119873, +0.025269, -0.109863, +0.293241, +0.112401, +0.195493 
1494299265.851649, 1494299265.851649, -1.119873, +0.025269, -0.109863, +0.293241, +0.112401, +0.195493 
1494299265.855601, 1494299265.855601, -1.119873, +0.025269, -0.109863, +0.476346, +0.112401, +0.348081 
1494299265.859549, 1494299265.859549, -1.119873, +0.025269, -0.109863, +0.476346, +0.112401, +0.348081 
1494299265.863485, 1494299265.863485, -1.123535, +0.019043, -0.107422, +0.476346, +0.112401, +0.226011 
1494299265.867437, 1494299265.867437, -1.123535, +0.019043, -0.107422, +0.308500, +0.188695, +0.226011 
1494299265.871389, 1494299265.871389, -1.123535, +0.019043, -0.107422, +0.308500, +0.188695, +0.226011 
1494299265.875291, 1494299265.875291, -1.123535, +0.019043, -0.107422, -0.042452, +0.264989, +0.088681 
1494299265.879034, 1494299265.879034, -1.123535, +0.019043, -0.107422, -0.042452, +0.264989, +0.088681 
1494299265.882779, 1494299265.882779, -1.123535, +0.014282, -0.112915, -0.042452, +0.264989, +0.088681 
1494299265.886662, 1494299265.886662, -1.121338, +0.014282, -0.112915, -0.042452, +0.295507, +0.149717 
1494299265.890603, 1494299265.890603, -1.121338, +0.014282, -0.112915, -0.042452, +0.295507, +0.149717 
1494299265.894587, 1494299265.894587, -1.121338, +0.014282, -0.112915, -0.042452, +0.295507, +0.149717 
1494299265.898527, 1494299265.898527, -1.121338, +0.014282, -0.112915, +0.201688, +0.020849, +0.103940 
1494299265.902475, 1494299265.902475, -1.121338, +0.014282, -0.106567, +0.201688, +0.020849, +0.103940 
1494299265.906433, 1494299265.906433, -1.122192, +0.020508, -0.106567, +0.201688, +0.020849, +0.103940 
1494299265.910380, 1494299265.910380, -1.122192, +0.020508, -0.106567, +0.354276, +0.097143, +0.088681 
1494299265.914334, 1494299265.914334, -1.122192, +0.020508, -0.106567, +0.354276, +0.097143, +0.088681 
1494299265.918275, 1494299265.918275, -1.122192, +0.020508, -0.106567, +0.354276, +0.142919, +0.210752 
1494299265.922219, 1494299265.922219, -1.122192, +0.020508, -0.106689, +0.384794, +0.142919, +0.210752 
1494299265.926124, 1494299265.926124, -1.124878, +0.023682, -0.106689, +0.384794, +0.142919, +0.210752 
1494299265.929873, 1494299265.929873, -1.124878, +0.023682, -0.106689, +0.476346, -0.024928, -0.002871 
1494299265.933626, 1494299265.933626, -1.124878, +0.023682, -0.106689, +0.476346, -0.024928, -0.002871 
1494299265.937544, 1494299265.937544, -1.124878, +0.023682, -0.106689, +0.476346, -0.024928, -0.002871 
1494299265.941489, 1494299265.941489, -1.124878, +0.023682, -0.106689, +0.155912, +0.051366, +0.195493 
1494299265.945442, 1494299265.945442, -1.120239, +0.016479, -0.112671, +0.155912, +0.051366, +0.195493 
1494299265.949385, 1494299265.949385, -1.120239, +0.016479, -0.112671, +0.155912, +0.051366, +0.195493 
1494299265.953331, 1494299265.953331, -1.120239, +0.016479, -0.112671, +0.277982, +0.051366, +0.180234 
1494299265.957289, 1494299265.957289, -1.120239, +0.016479, -0.112671, +0.277982, +0.051366, +0.180234 
1494299265.961233, 1494299265.961233, -1.120239, +0.016479, -0.112671, +0.277982, +0.051366, +0.210752 
1494299265.965215, 1494299265.965215, -1.124390, +0.024048, -0.110596, +0.247465, +0.219213, +0.210752 
1494299265.969155, 1494299265.969155, -1.124390, +0.024048, -0.110596, +0.247465, +0.219213, +0.210752 
1494299265.973107, 1494299265.973107, -1.124390, +0.024048, -0.110596, +0.491605, +0.249731, +0.226011 
1494299265.977036, 1494299265.977036, -1.124390, +0.024048, -0.110596, +0.491605, +0.249731, +0.226011 
1494299265.980792, 1494299265.980792, -1.124390, +0.024048, -0.110596, +0.491605, +0.249731, +0.226011 
1494299265.984599, 1494299265.984599, -1.123901, +0.026123, -0.104492, +0.384794, +0.051366, -0.155459 
1494299265.988539, 1494299265.988539, -1.123901, +0.026123, -0.104492, +0.384794, +0.051366, -0.155459 
1494299265.992478, 1494299265.992478, -1.123901, +0.026123, -0.104492, +0.384794, +0.051366, -0.155459 
1494299265.996425, 1494299265.996425, -1.123901, +0.026123, -0.104492, +0.751005, -0.055445, -0.399600 
1494299266.000371, 1494299266.000371, -1.123901, +0.026123, -0.104492, +0.751005, -0.055445, -0.399600 
1494299266.004324, 1494299266.004324, -1.122681, +0.026611, -0.107056, +0.751005, -0.055445, -0.399600 
1494299266.008273, 1494299266.008273, -1.122681, +0.026611, -0.107056, +0.552640, +0.127660, -0.506411 
1494299266.012218, 1494299266.012218, -1.122681, +0.026611, -0.107056, +0.552640, +0.127660, -0.506411 
1494299266.016114, 1494299266.016114, -1.122681, +0.026611, -0.107056, +0.552640, +0.127660, -0.750552 
1494299266.019866, 1494299266.019866, -1.122681, +0.026611, -0.107056, +0.735746, +0.020849, -0.750552 
1494299266.023609, 1494299266.023609, -1.124268, +0.022705, -0.113770, +0.735746, +0.020849, -0.750552 
1494299266.027607, 1494299266.027607, -1.124268, +0.022705, -0.113770, +0.216947, +0.173437, -0.735293 
1494299266.031554, 1494299266.031554, -1.124268, +0.022705, -0.113770, +0.216947, +0.173437, -0.735293 
1494299266.035506, 1494299266.035506, -1.124268, +0.022705, -0.113770, +0.216947, +0.173437, -0.735293 
1494299266.039452, 1494299266.039452, -1.124268, +0.022705, -0.113770, +0.491605, +0.081884, -0.735293 
1494299266.043397, 1494299266.043397, -1.128418, +0.018799, -0.110474, +0.491605, +0.081884, -0.735293 
1494299266.047340, 1494299266.047340, -1.128418, +0.018799, -0.110474, +0.491605, +0.081884, -0.735293 
1494299266.051329, 1494299266.051329, -1.128418, +0.018799, -0.110474, +0.644193, -0.009669, -0.735293 
1494299266.055264, 1494299266.055264, -1.128418, +0.018799, -0.110474, +0.644193, -0.009669, -0.735293 
1494299266.059149, 1494299266.059149, -1.128418, +0.018799, -0.110474, +0.644193, -0.009669, -0.887881 
1494299266.063142, 1494299266.063142, -1.120239, +0.015991, -0.104980, +0.964628, +0.127660, -0.887881 
1494299266.066958, 1494299266.066958, -1.120239, +0.015991, -0.104980, +0.964628, +0.127660, -0.887881 
1494299266.070735, 1494299266.070735, -1.120239, +0.015991, -0.104980, +0.964628, +0.280248, -1.147280 
1494299266.074543, 1494299266.074543, -1.120239, +0.015991, -0.104980, +0.506864, +0.280248, -1.147280 
1494299266.078278, 1494299266.078278, -1.120239, +0.015991, -0.104980, +0.506864, +0.280248, -1.147280 
1494299266.082013, 1494299266.082013, -1.118896, +0.025879, -0.107056, +0.857816, +0.493871, -0.933657 
1494299266.085858, 1494299266.085858, -1.118896, +0.025879, -0.107056, +0.857816, +0.493871, -0.933657 
1494299266.089802, 1494299266.089802, -1.118896, +0.025879, -0.107056, +0.857816, +0.493871, -0.933657 
1494299266.093740, 1494299266.093740, -1.118896, +0.025879, -0.107056, +0.674711, +0.417577, -0.887881 
1494299266.097692, 1494299266.097692, -1.118896, +0.025879, -0.107056, +0.674711, +0.417577, -0.887881 
1494299266.101636, 1494299266.101636, -1.126465, +0.015381, -0.106934, +0.674711, +0.417577, -0.887881 
1494299266.105609, 1494299266.105609, -1.126465, +0.015381, -0.106934, +0.796781, +0.509130, -0.735293 
1494299266.109554, 1494299266.109554, -1.126465, +0.015381, -0.106934, +0.796781, +0.509130, -0.735293 
1494299266.113491, 1494299266.113491, -1.126465, +0.015381, -0.106934, +0.796781, +0.509130, -0.735293 
1494299266.117290, 1494299266.117290, -1.126465, +0.015381, -0.106934, +1.040922, +0.524389, -0.445376 
1494299266.121040, 1494299266.121040, -1.126465, +0.017700, -0.111084, +1.040922, +0.524389, -0.445376 
1494299266.124839, 1494299266.124839, -1.124023, +0.017700, -0.111084, +1.040922, +0.524389, -0.506411 
1494299266.128882, 1494299266.128882, -1.124023, +0.017700, -0.111084, +1.071439, +0.432836, -0.506411 
1494299266.132828, 1494299266.132828, -1.124023, +0.017700, -0.111084, +1.071439, +0.432836, -0.506411 
1494299266.136808, 1494299266.136808, -1.124023, +0.017700, -0.111084, +0.659452, +0.326025, -0.399600 
1494299266.140742, 1494299266.140742, -1.124023, +0.017700, -0.108154, +0.659452, +0.326025, -0.399600 
1494299266.144689, 1494299266.144689, -1.123657, +0.023560, -0.108154, +0.659452, +0.326025, -0.399600 
1494299266.148626, 1494299266.148626, -1.123657, +0.023560, -0.108154, +0.720487, +0.661718, -0.155459 
1494299266.152570, 1494299266.152570, -1.123657, +0.023560, -0.108154, +0.720487, +0.661718, -0.155459 
1494299266.156523, 1494299266.156523, -1.123657, +0.023560, -0.108154, +0.720487, +0.661718, -0.155459 
1494299266.160461, 1494299266.160461, -1.123657, +0.023560, -0.106812, +1.178251, +0.463354, +0.164975 
1494299266.164410, 1494299266.164410, -1.124023, +0.010864, -0.106812, +1.178251, +0.463354, +0.164975 
1494299266.168151, 1494299266.168151, -1.124023, +0.010864, -0.106812, +1.178251, +0.463354, +0.287046 
1494299266.171897, 1494299266.171897, -1.124023, +0.010864, -0.106812, +1.025663, +0.402318, +0.287046 
1494299266.175714, 1494299266.175714, -1.124023, +0.010864, -0.106812, +1.025663, +0.402318, +0.287046 
1494299266.179660, 1494299266.179660, -1.124023, +0.010864, -0.106812, +1.025663, +0.188695, +0.515928 
1494299266.183593, 1494299266.183593, -1.118530, +0.017578, -0.108643, +1.132474, +0.188695, +0.515928 
1494299266.187555, 1494299266.187555, -1.118530, +0.017578, -0.108643, +1.132474, +0.188695, +0.515928 
1494299266.191488, 1494299266.191488, -1.118530, +0.017578, -0.108643, +1.300321, +0.417577, +0.897397 
1494299266.195443, 1494299266.195443, -1.118530, +0.017578, -0.108643, +1.300321, +0.417577, +0.897397 
1494299266.199385, 1494299266.199385, -1.118530, +0.017578, -0.108643, +1.300321, +0.417577, +0.897397 
1494299266.203324, 1494299266.203324, -1.118652, +0.023804, -0.104980, +1.574979, +0.570165, +0.851621 
1494299266.207138, 1494299266.207138, -1.118652, +0.023804, -0.104980, +1.574979, +0.570165, +0.851621 
1494299266.210880, 1494299266.210880, -1.118652, +0.023804, -0.104980, +1.574979, +0.570165, +0.851621 
1494299266.214777, 1494299266.214777, -1.118652, +0.023804, -0.104980, +1.651273, +0.509130, +0.470151 
1494299266.218523, 1494299266.218523, -1.118652, +0.023804, -0.104980, +1.651273, +0.509130, +0.470151 
1494299266.222268, 1494299266.222268, -1.118164, +0.019165, -0.106079, +1.651273, +0.509130, +0.470151 
1494299266.226153, 1494299266.226153, -1.118164, +0.019165, -0.106079, +1.178251, +0.478612, +0.424375 
1494299266.230103, 1494299266.230103, -1.118164, +0.019165, -0.106079, +1.178251, +0.478612, +0.424375 
1494299266.234045, 1494299266.234045, -1.118164, +0.019165, -0.106079, +1.178251, +0.814306, +0.714292 
1494299266.238027, 1494299266.238027, -1.118164, +0.019165, -0.106079, +0.903593, +0.814306, +0.714292 
1494299266.241965, 1494299266.241965, -1.117310, +0.024780, -0.108521, +0.903593, +0.814306, +0.714292 
1494299266.245919, 1494299266.245919, -1.117310, +0.024780, -0.108521, +0.995145, +0.661718, +0.592221 
1494299266.249859, 1494299266.249859, -1.117310, +0.024780, -0.108521, +0.995145, +0.661718, +0.592221 
1494299266.253800, 1494299266.253800, -1.117310, +0.024780, -0.108521, +0.995145, +0.661718, +0.592221 
1494299266.257746, 1494299266.257746, -1.117310, +0.024780, -0.108521, +1.269804, +0.646459, +0.561704 
1494299266.261686, 1494299266.261686, -1.125732, +0.014038, -0.110107, +1.269804, +0.646459, +0.561704 
1494299266.265579, 1494299266.265579, -1.125732, +0.014038, -0.110107, +1.269804, +0.646459, +0.561704 
1494299266.269326, 1494299266.269326, -1.125732, +0.014038, -0.110107, +1.605497, +0.387060, +0.561704 
1494299266.273069, 1494299266.273069, -1.125732, +0.014038, -0.110107, +1.605497, +0.387060, +0.561704 
1494299266.276950, 1494299266.276950, -1.125732, +0.014038, -0.110107, +1.605497, +0.387060, +1.004209 
1494299266.280898, 1494299266.280898, -1.119019, +0.016846, -0.101562, +2.017484, +0.493871, +1.004209 
1494299266.284951, 1494299266.284951, -1.119019, +0.016846, -0.101562, +2.017484, +0.493871, +1.004209 
1494299266.288891, 1494299266.288891, -1.119019, +0.016846, -0.101562, +2.612577, +0.493871, +0.790586 
1494299266.292831, 1494299266.292831, -1.119019, +0.016846, -0.101562, +2.612577, +0.493871, +0.790586 
1494299266.296825, 1494299266.296825, -1.119019, +0.016846, -0.101562, +2.612577, +0.493871, +0.790586 
1494299266.300764, 1494299266.300764, -1.118408, +0.025513, -0.099243, +3.146635, +0.326025, +0.821103 
1494299266.304753, 1494299266.304753, -1.118408, +0.025513, -0.099243, +3.146635, +0.326025, +0.821103 
1494299266.308693, 1494299266.308693, -1.118408, +0.025513, -0.099243, +3.146635, +0.326025, +0.821103 
1494299266.312635, 1494299266.312635, -1.118408, +0.025513, -0.099243, +3.085599, +0.371801, +0.317563 
1494299266.316528, 1494299266.316528, -1.118408, +0.025513, -0.099243, +3.085599, +0.371801, +0.317563 
1494299266.320266, 1494299266.320266, -1.121460, +0.039917, -0.104370, +3.085599, +0.371801, +0.317563 
1494299266.324011, 1494299266.324011, -1.121460, +0.039917, -0.104370, +1.559721, +0.707494, -0.002871 
1494299266.327762, 1494299266.327762, -1.121460, +0.039917, -0.104370, +1.559721, +0.707494, -0.002871 
1494299266.331508, 1494299266.331508, -1.121460, +0.039917, -0.104370, +1.559721, +0.707494, -0.430117 
1494299266.335312, 1494299266.335312, -1.121460, +0.039917, -0.104370, +0.018583, +0.722753, -0.430117 
1494299266.339258, 1494299266.339258, -1.121460, +0.008667, -0.121094, +0.018583, +0.722753, -0.430117 
1494299266.343198, 1494299266.343198, -1.119019, +0.026611, -0.121094, -1.003756, +0.387060, -0.369082 
1494299266.347151, 1494299266.347151, -1.119019, +0.026611, -0.121094, -1.003756, +0.387060, -0.369082 
1494299266.351095, 1494299266.351095, -1.119019, +0.026611, -0.121094, -1.003756, +0.387060, -0.369082 
1494299266.355048, 1494299266.355048, -1.119019, +0.026611, -0.121094, -1.400485, +0.173437, -0.460635 
1494299266.358990, 1494299266.358990, -1.119019, +0.026611, -0.131348, -1.400485, +0.173437, -0.460635 
1494299266.362927, 1494299266.362927, -1.133057, +0.030273, -0.131348, -1.400485, +0.173437, -0.460635 
1494299266.366880, 1494299266.366880, -1.133057, +0.030273, -0.131348, -2.575411, -0.406397, -0.124942 
1494299266.370822, 1494299266.370822, -1.133057, +0.030273, -0.131348, -2.575411, -0.406397, -0.124942 
1494299266.374785, 1494299266.374785, -1.133057, +0.030273, -0.131348, -2.575411, -0.406397, -0.124942 
1494299266.378534, 1494299266.378534, -1.133057, +0.030273, -0.100098, -3.246798, -1.047266, +0.042905 
1494299266.382269, 1494299266.382269, -1.119263, +0.021240, -0.118408, -3.246798, -1.047266, +0.042905 
1494299266.386077, 1494299266.386077, -1.119263, +0.021240, -0.118408, -3.246798, -1.047266, -0.048648 
1494299266.389959, 1494299266.389959, -1.119263, +0.021240, -0.118408, -2.316012, -1.108302, -0.048648 
1494299266.393833, 1494299266.393833, -1.119263, +0.021240, -0.118408, -2.316012, -1.108302, -0.048648 
1494299266.397771, 1494299266.397771, -1.119263, +0.021240, -0.118408, -2.209200, -1.276148, +0.226011 
1494299266.401714, 1494299266.401714, -1.120972, +0.027100, -0.099487, -2.209200, -1.276148, +0.226011 
1494299266.405668, 1494299266.405668, -1.120972, +0.027100, -0.099487, -2.209200, -1.276148, +0.226011 
1494299266.409610, 1494299266.409610, -1.120972, +0.027100, -0.099487, -2.560153, -1.443995, +0.363340 
1494299266.413551, 1494299266.413551, -1.120972, +0.027100, -0.099487, -2.560153, -1.443995, +0.363340 
1494299266.417499, 1494299266.417499, -1.120972, +0.027100, -0.099487, -2.560153, -1.443995, +0.363340 
1494299266.421445, 1494299266.421445, -1.137451, +0.039185, -0.114258, -4.345431, -1.413477, +0.317563 
1494299266.425349, 1494299266.425349, -1.137451, +0.039185, -0.114258, -4.345431, -1.413477, +0.317563 
1494299266.429097, 1494299266.429097, -1.137451, +0.039185, -0.114258, -4.345431, -1.413477, +0.317563 
1494299266.432844, 1494299266.432844, -1.137451, +0.039185, -0.114258, -6.695284, -1.382960, +0.378598 
1494299266.436878, 1494299266.436878, -1.137451, +0.039185, -0.114258, -6.695284, -1.382960, +0.378598 
1494299266.440823, 1494299266.440823, -1.142578, +0.049561, -0.125000, -6.695284, -2.283228, +1.111020 
1494299266.444807, 1494299266.444807, -1.142578, +0.049561, -0.125000, -10.250582, -2.283228, +1.111020 
1494299266.448757, 1494299266.448757, -1.142578, +0.049561, -0.125000, -10.250582, -2.283228, +1.111020 
1494299266.452701, 1494299266.452701, -1.142578, +0.049561, -0.125000, -11.318697, -2.786768, +1.538266 
1494299266.456667, 1494299266.456667, -1.142578, +0.049561, -0.125000, -11.318697, -2.786768, +1.538266 
1494299266.460615, 1494299266.460615, -1.121704, +0.021118, -0.115356, -11.318697, -2.786768, +1.538266 
1494299266.464612, 1494299266.464612, -1.121704, +0.021118, -0.115356, -8.434786, -3.580225, +0.729551 
1494299266.468555, 1494299266.468555, -1.121704, +0.021118, -0.115356, -8.434786, -3.580225, +0.729551 
1494299266.472495, 1494299266.472495, -1.121704, +0.021118, -0.115356, -8.434786, -3.580225, +0.729551 
1494299266.476349, 1494299266.476349, -1.121704, +0.021118, -0.115356, -6.100192, -4.114283, +0.088681 
1494299266.480093, 1494299266.480093, -1.126343, +0.013916, -0.110474, -6.100192, -4.114283, +0.088681 
1494299266.483840, 1494299266.483840, -1.126343, +0.013916, -0.110474, -6.100192, -4.114283, -0.628482 
1494299266.487776, 1494299266.487776, -1.126343, +0.013916, -0.110474, -3.307833, -4.770411, -0.628482 
1494299266.491722, 1494299266.491722, -1.126343, +0.013916, -0.110474, -3.307833, -4.770411, -0.628482 
1494299266.495671, 1494299266.495671, -1.126343, +0.013916, -0.110474, -1.431002, -5.502833, -1.132022 
1494299266.499613, 1494299266.499613, -1.127319, +0.026245, -0.109985, -1.431002, -5.502833, -1.132022 
1494299266.503554, 1494299266.503554, -1.127319, +0.026245, -0.109985, -1.431002, -5.502833, -1.132022 
1494299266.507504, 1494299266.507504, -1.127319, +0.026245, -0.109985, +0.201688, -6.006373, -1.864444 
1494299266.511447, 1494299266.511447, -1.127319, +0.026245, -0.109985, +0.201688, -6.006373, -1.864444 
1494299266.515403, 1494299266.515403, -1.127319, +0.026245, -0.109985, +0.201688, -6.006373, -1.864444 
1494299266.519349, 1494299266.519349, -1.130859, +0.039795, -0.110352, +0.705228, -6.784571, -2.947818 
1494299266.523286, 1494299266.523286, -1.130859, +0.039795, -0.110352, +0.705228, -6.784571, -2.947818 
1494299266.527093, 1494299266.527093, -1.130859, +0.039795, -0.110352, +0.705228, -6.784571, -2.947818 
1494299266.530835, 1494299266.530835, -1.130859, +0.039795, -0.110352, +0.476346, -7.730616, -3.558169 
1494299266.534626, 1494299266.534626, -1.130859, +0.039795, -0.110352, +0.476346, -7.730616, -3.558169 
1494299266.538569, 1494299266.538569, -1.133911, +0.028442, -0.111694, +0.476346, -7.730616, -3.985415 
1494299266.542509, 1494299266.542509, -1.133911, +0.028442, -0.111694, +0.552640, -8.417261, -3.985415 
1494299266.546456, 1494299266.546456, -1.133911, +0.028442, -0.111694, +0.552640, -8.417261, -3.985415 
1494299266.550393, 1494299266.550393, -1.133911, +0.028442, -0.111694, +0.369535, -8.966578, -4.717837 
1494299266.554343, 1494299266.554343, -1.133911, +0.028442, -0.111694, +0.369535, -8.966578, -4.717837 
1494299266.558286, 1494299266.558286, -1.130249, +0.040405, -0.104492, +0.369535, -8.966578, -4.717837 
1494299266.562227, 1494299266.562227, -1.130249, +0.040405, -0.104492, +0.125394, -9.378565, -5.282413 
1494299266.566222, 1494299266.566222, -1.130249, +0.040405, -0.104492, +0.125394, -9.378565, -5.282413 
1494299266.570166, 1494299266.570166, -1.130249, +0.040405, -0.104492, +0.125394, -9.378565, -5.282413 
1494299266.574111, 1494299266.574111, -1.130249, +0.040405, -0.104492, -1.415743, -10.233057, -5.938540 
1494299266.577886, 1494299266.577886, -1.130249, +0.056030, -0.101807, -1.415743, -10.233057, -5.938540 
1494299266.581630, 1494299266.581630, -1.135864, +0.056030, -0.101807, -1.415743, -10.233057, -5.938540 
1494299266.585395, 1494299266.585395, -1.135864, +0.056030, -0.101807, -3.750338, -10.858667, -6.655704 
1494299266.589248, 1494299266.589248, -1.135864, +0.056030, -0.101807, -3.750338, -10.858667, -6.655704 
1494299266.592994, 1494299266.592994, -1.135864, +0.056030, -0.101807, -3.750338, -10.858667, -7.617007 
1494299266.596889, 1494299266.596889, -1.135864, +0.056030, -0.070557, -6.084933, -11.041773, -7.617007 
1494299266.600836, 1494299266.600836, -1.127197, +0.038574, -0.092773, -6.084933, -11.041773, -7.617007 
1494299266.604820, 1494299266.604820, -1.127197, +0.038574, -0.092773, -7.030978, -11.850489, -9.783755 
1494299266.608767, 1494299266.608767, -1.127197, +0.038574, -0.092773, -7.030978, -11.850489, -9.783755 
1494299266.612707, 1494299266.612707, -1.127197, +0.038574, -0.092773, -7.030978, -11.850489, -9.783755 
1494299266.616661, 1494299266.616661, -1.127197, +0.038574, -0.124023, -6.832613, -12.903345, -12.850772 
1494299266.620607, 1494299266.620607, -1.129395, +0.050903, -0.098022, -6.832613, -12.903345, -12.850772 
1494299266.624597, 1494299266.624597, -1.129395, +0.050903, -0.098022, -6.832613, -12.903345, -12.850772 
1494299266.628537, 1494299266.628537, -1.129395, +0.050903, -0.098022, -6.603732, -13.788355, -16.406069 
1494299266.632485, 1494299266.632485, -1.129395, +0.050903, -0.098022, -6.603732, -13.788355, -16.406069 
1494299266.636348, 1494299266.636348, -1.129395, +0.050903, -0.098022, -6.603732, -13.788355, -20.312319 
1494299266.640097, 1494299266.640097, -1.141235, +0.054810, -0.096924, -5.611910, -14.597071, -20.419130 
1494299266.643851, 1494299266.643851, -1.141235, +0.054810, -0.096924, -5.611910, -14.597071, -20.419130 
1494299266.647822, 1494299266.647822, -1.141235, +0.054810, -0.096924, -1.705660, -15.970362, -25.042543 
1494299266.651768, 1494299266.651768, -1.141235, +0.054810, -0.096924, -5.154147, -15.970362, -25.042543 
1494299266.655725, 1494299266.655725, -1.141235, +0.054810, -0.096924, -5.154147, -15.970362, -25.042543 
1494299266.659671, 1494299266.659671, -1.153931, +0.026245, -0.064819, -4.650607, -18.396509, -29.803286 
1494299266.663620, 1494299266.663620, -1.153931, +0.026245, -0.064819, -4.650607, -18.396509, -29.803286 
1494299266.667569, 1494299266.667569, -1.153931, +0.026245, -0.064819, -4.650607, -18.396509, -29.803286 
1494299266.671519, 1494299266.671519, -1.153931, +0.026245, -0.064819, -0.957980, -22.272242, -34.914982 
1494299266.675484, 1494299266.675484, -1.153931, +0.026245, -0.064819, -0.957980, -22.272242, -34.914982 
1494299266.679438, 1494299266.679438, -1.193726, +0.028809, -0.045654, -0.957980, -22.272242, -34.914982 
1494299266.683384, 1494299266.683384, -1.193726, +0.028809, -0.045654, +4.001127, -25.201929, -41.247379 
1494299266.687201, 1494299266.687201, -1.193726, +0.028809, -0.045654, +4.001127, -25.201929, -41.247379 
1494299266.690955, 1494299266.690955, -1.193726, +0.028809, -0.045654, +4.001127, -25.201929, -47.930729 
1494299266.694709, 1494299266.694709, -1.193726, +0.028809, -0.045654, +10.119902, -26.758326, -47.930729 
1494299266.698457, 1494299266.698457, -1.268555, +0.055908, -0.063477, +10.119902, -26.758326, -47.930729 
1494299266.702207, 1494299266.702207, -1.268555, +0.055908, -0.063477, +10.119902, -28.085840, -53.668034 
1494299266.706046, 1494299266.706046, -1.268555, +0.055908, -0.063477, +14.773832, -28.085840, -53.668034 
1494299266.709996, 1494299266.709996, -1.268555, +0.055908, -0.063477, +14.773832, -28.085840, -53.668034 
1494299266.713952, 1494299266.713952, -1.268555, +0.055908, -0.063477, +18.878447, -28.650415, -59.573185 
1494299266.717908, 1494299266.717908, -1.393677, +0.102661, -0.030151, +18.878447, -28.650415, -59.573185 
1494299266.721864, 1494299266.721864, -1.393677, +0.102661, -0.030151, +18.878447, -28.650415, -59.573185 
1494299266.725834, 1494299266.725834, -1.393677, +0.102661, -0.030151, +20.511137, -29.001368, -65.218933 
1494299266.729789, 1494299266.729789, -1.393677, +0.102661, -0.030151, +20.511137, -29.001368, -65.218933 
1494299266.733740, 1494299266.733740, -1.393677, +0.102661, -0.030151, +20.511137, -29.001368, -65.218933 
1494299266.737544, 1494299266.737544, -1.585693, +0.024780, +0.027344, +21.167265, -28.803003, -69.125183 
1494299266.741423, 1494299266.741423, -1.585693, +0.024780, +0.027344, +21.167265, -28.803003, -69.125183 
1494299266.745261, 1494299266.745261, -1.585693, +0.024780, +0.027344, +21.167265, -28.803003, -73.031433 
1494299266.749209, 1494299266.749209, -1.585693, +0.024780, +0.027344, +23.837553, -30.191553, -73.031433 
1494299266.753157, 1494299266.753157, -1.585693, +0.024780, +0.027344, +23.837553, -30.191553, -73.031433 
1494299266.757121, 1494299266.757121, -1.796509, +0.208984, +0.059448, +27.621733, -32.892361, -77.822693 
1494299266.761074, 1494299266.761074, -1.796509, +0.208984, +0.059448, +27.621733, -32.892361, -77.822693 
1494299266.765035, 1494299266.765035, -1.796509, +0.208984, +0.059448, +27.621733, -32.892361, -77.822693 
1494299266.768987, 1494299266.768987, -1.796509, +0.208984, +0.059448, +28.430449, -35.638943, -83.041199 
1494299266.772963, 1494299266.772963, -1.796509, +0.208984, +0.059448, +28.430449, -35.638943, -83.041199 
1494299266.776885, 1494299266.776885, -1.788086, +0.228516, +0.086670, +28.430449, -35.638943, -83.041199 
1494299266.780775, 1494299266.780775, -1.788086, +0.228516, +0.086670, +26.629911, -38.065090, -89.312561 
1494299266.784782, 1494299266.784782, -1.788086, +0.228516, +0.086670, +26.629911, -38.065090, -89.312561 
1494299266.788544, 1494299266.788544, -1.788086, +0.228516, +0.086670, +26.629911, -38.065090, -89.312561 
1494299266.792383, 1494299266.792383, -1.788086, +0.228516, +0.086670, +23.364531, -42.627468, -94.378479 
1494299266.796234, 1494299266.796234, -1.631836, +0.318237, +0.052246, +23.364531, -42.627468, -94.378479 
1494299266.800124, 1494299266.800124, -1.634766, +0.318237, +0.052246, +15.552031, -46.198025, -98.147400 
1494299266.804215, 1494299266.804215, -1.634766, +0.318237, +0.052246, +16.177641, -46.198025, -98.147400 
1494299266.808107, 1494299266.808107, -1.634766, +0.318237, +0.052246, +16.177641, -46.198025, -98.147400 
1494299266.812027, 1494299266.812027, -1.634766, +0.318237, +0.052246, +3.970609, -44.855251, -99.902161 
1494299266.816041, 1494299266.816041, -1.416016, +0.431274, -0.173096, +3.970609, -44.855251, -99.902161 
1494299266.819987, 1494299266.819987, -1.420410, +0.431274, -0.173096, +3.970609, -44.855251, -99.902161 
1494299266.823931, 1494299266.823931, -1.420410, +0.431274, -0.173096, -13.821138, -36.737576, -100.161560 
1494299266.827894, 1494299266.827894, -1.420410, +0.431274, -0.173096, -13.821138, -36.737576, -100.161560 
1494299266.831847, 1494299266.831847, -1.420410, +0.431274, -0.173096, -13.821138, -36.737576, -100.161560 
1494299266.835781, 1494299266.835781, -1.420410, +0.130615, -0.321899, -33.703342, -27.506006, -101.672180 
1494299266.839538, 1494299266.839538, -1.160156, +0.130615, -0.321899, -33.703342, -27.506006, -101.672180 
1494299266.843289, 1494299266.843289, -1.160156, +0.130615, -0.321899, -33.703342, -27.506006, -100.024231 
1494299266.847097, 1494299266.847097, -1.160156, +0.130615, -0.321899, -51.647678, -19.037378, -100.024231 
1494299266.850841, 1494299266.850841, -1.160156, +0.130615, -0.321899, -51.647678, -19.037378, -100.024231 
1494299266.854637, 1494299266.854637, -1.160156, +0.130615, -0.321899, -51.647678, -9.637964, -93.081482 
1494299266.858581, 1494299266.858581, -0.979248, -0.143066, -0.366333, -62.176243, -9.637964, -93.081482 
1494299266.862524, 1494299266.862524, -0.979248, -0.143066, -0.366333, -62.176243, -9.637964, -93.081482 
1494299266.866483, 1494299266.866483, -0.979248, -0.143066, -0.366333, -61.886326, +0.020849, -82.690247 
1494299266.870432, 1494299266.870432, -0.979248, -0.143066, -0.366333, -61.886326, +0.020849, -82.690247 
1494299266.874388, 1494299266.874388, -0.979248, -0.143066, -0.366333, -61.886326, +0.020849, -82.690247 
1494299266.878330, 1494299266.878330, -0.758057, -0.053223, -0.304932, -48.504368, +7.558691, -68.087585 
1494299266.882276, 1494299266.882276, -0.758057, -0.053223, -0.304932, -48.504368, +7.558691, -68.087585 
1494299266.886227, 1494299266.886227, -0.758057, -0.053223, -0.304932, -48.504368, +7.558691, -68.087585 
1494299266.890277, 1494299266.890277, -0.758057, -0.053223, -0.304932, -35.503880, +12.990820, -47.457706 
1494299266.894225, 1494299266.894225, -0.758057, -0.053223, -0.304932, -35.503880, +12.990820, -47.457706 
1494299266.897982, 1494299266.897982, -0.588135, +0.967529, -0.126465, -35.503880, +12.990820, -22.173891 
1494299266.901737, 1494299266.901737, -0.588135, +0.967529, -0.126465, -42.767063, +18.331396, -22.173891 
1494299266.905555, 1494299266.905555, -0.588135, +0.967529, -0.126465, -42.767063, +18.331396, -22.173891 
1494299266.909500, 1494299266.909500, -0.588135, +0.967529, -0.126465, -62.496677, +20.879614, -2.154361 
1494299266.913443, 1494299266.913443, -0.588135, +0.967529, -0.126465, -62.496677, +20.879614, -2.154361 
1494299266.917430, 1494299266.917430, -0.505615, +0.429688, -0.063599, -62.496677, +20.879614, -2.154361 
1494299266.921377, 1494299266.921377, -0.505615, +0.429688, -0.063599, -66.235077, +21.520483, +13.531674 
1494299266.925328, 1494299266.925328, -0.505615, +0.429688, -0.063599, -66.235077, +21.520483, +13.531674 
1494299266.929277, 1494299266.929277, -0.505615, +0.429688, -0.063599, -66.235077, +21.520483, +13.531674 
1494299266.933228, 1494299266.933228, -0.505615, +0.429688, -0.063599, -57.369724, +21.978247, +31.872740 
1494299266.937254, 1494299266.937254, -0.607910, +0.593384, -0.112183, -57.369724, +21.978247, +31.872740 
1494299266.941204, 1494299266.941204, -0.607910, +0.593384, -0.112183, -57.369724, +21.978247, +49.313534 
1494299266.945179, 1494299266.945179, -0.607910, +0.593384, -0.112183, -50.655857, +21.566259, +49.313534 
1494299266.948930, 1494299266.948930, -0.607910, +0.593384, -0.112183, -50.655857, +21.566259, +49.313534 
1494299266.952685, 1494299266.952685, -0.607910, +0.593384, -0.112183, -50.655857, +19.399511, +65.304749 
1494299266.956442, 1494299266.956442, -0.700195, +0.460449, +0.007080, -41.683689, +19.399511, +65.304749 
1494299266.960196, 1494299266.960196, -0.700195, +0.460449, +0.007080, -41.683689, +19.399511, +65.304749 
1494299266.963945, 1494299266.963945, -0.700195, +0.460449, +0.007080, -30.148043, +17.171728, +80.487244 
1494299266.967887, 1494299266.967887, -0.700195, +0.460449, +0.007080, -30.148043, +17.171728, +80.487244 
1494299266.971841, 1494299266.971841, -0.700195, +0.460449, +0.007080, -30.148043, +17.171728, +80.487244 
1494299266.975811, 1494299266.975811, -0.822144, +0.394409, +0.046875, -16.155733, +14.425146, +95.532410 
1494299266.979759, 1494299266.979759, -0.822144, +0.394409, +0.046875, -16.155733, +14.425146, +95.532410 
1494299266.983713, 1494299266.983713, -0.822144, +0.394409, +0.046875, -16.155733, +14.425146, +95.532410 
1494299266.987671, 1494299266.987671, -0.822144, +0.394409, +0.046875, -3.078951, +11.556494, +109.906189 
1494299266.991626, 1494299266.991626, -0.822144, +0.394409, +0.046875, -3.078951, +11.556494, +109.906189 
1494299266.995560, 1494299266.995560, -0.935425, +0.334106, +0.041016, -3.078951, +11.556494, +121.624939 
1494299266.999308, 1494299266.999308, -0.935425, +0.334106, +0.041016, +7.693754, +9.481298, +122.311584 
1494299267.003056, 1494299267.003056, -0.935425, +0.334106, +0.041016, +7.693754, +9.481298, +122.311584 
1494299267.006954, 1494299267.006954, -0.935425, +0.334106, +0.041016, +7.693754, +9.481298, +133.542053 
1494299267.010899, 1494299267.010899, -0.935425, +0.334106, +0.041016, +16.803251, +8.764135, +133.542053 
1494299267.014858, 1494299267.014858, -1.052368, +0.294189, +0.039062, +16.803251, +8.764135, +133.542053 
1494299267.018805, 1494299267.018805, -1.052368, +0.294189, +0.039062, +24.264799, +7.940160, +143.765442 
1494299267.022750, 1494299267.022750, -1.052368, +0.294189, +0.039062, +24.264799, +7.940160, +143.765442 
1494299267.026706, 1494299267.026706, -1.052368, +0.294189, +0.039062, +24.264799, +7.940160, +143.765442 
1494299267.030654, 1494299267.030654, -1.052368, +0.294189, +0.039062, +30.887114, +8.062231, +152.356140 
1494299267.034614, 1494299267.034614, -1.170532, +0.235474, +0.050171, +30.887114, +8.062231, +152.356140 
1494299267.038563, 1494299267.038563, -1.170532, +0.235474, +0.050171, +30.887114, +8.062231, +152.356140 
1494299267.042617, 1494299267.042617, -1.170532, +0.235474, +0.050171, +35.632595, +8.840429, +158.978455 
1494299267.046506, 1494299267.046506, -1.170532, +0.235474, +0.050171, +35.632595, +8.840429, +158.978455 
1494299267.050254, 1494299267.050254, -1.170532, +0.235474, +0.050171, +35.632595, +8.840429, +164.715759 
1494299267.054007, 1494299267.054007, -1.170532, +0.245728, +0.051514, +37.143215, +10.213720, +164.715759 
1494299267.057953, 1494299267.057953, -1.275391, +0.245728, +0.051514, +37.143215, +10.213720, +164.715759 
1494299267.061905, 1494299267.061905, -1.275391, +0.245728, +0.051514, +35.525784, +12.884008, +169.003479 
1494299267.065871, 1494299267.065871, -1.275391, +0.245728, +0.051514, +35.525784, +12.884008, +169.003479 
1494299267.069823, 1494299267.069823, -1.275391, +0.245728, +0.051514, +35.525784, +12.884008, +169.003479 
1494299267.073779, 1494299267.073779, -1.275391, +0.248657, +0.028809, +29.208647, +15.600073, +171.597473 
1494299267.077741, 1494299267.077741, -1.376953, +0.248657, +0.028809, +29.208647, +15.600073, +171.597473 
1494299267.081687, 1494299267.081687, -1.376953, +0.248657, +0.028809, +29.208647, +15.600073, +171.597473 
1494299267.085591, 1494299267.085591, -1.376953, +0.248657, +0.028809, +20.236479, +17.690527, +173.062317 
1494299267.089339, 1494299267.089339, -1.376953, +0.248657, +0.028809, +20.236479, +17.690527, +173.062317 
1494299267.093089, 1494299267.093089, -1.376953, +0.248657, +0.028809, +20.236479, +17.690527, +173.062317 
1494299267.096906, 1494299267.096906, -1.456055, +0.177856, +0.009766, +12.683378, +18.865454, +172.909729 
1494299267.100660, 1494299267.100660, -1.456055, +0.177856, +0.009766, +12.683378, +18.865454, +172.909729 
1494299267.104416, 1494299267.104416, -1.456055, +0.177856, +0.009766, +12.683378, +18.865454, +172.909729 
1494299267.108175, 1494299267.108175, -1.456055, +0.177856, +0.009766, +4.931913, +19.964087, +171.612732 
1494299267.111916, 1494299267.111916, -1.456055, +0.177856, +0.009766, +4.931913, +19.964087, +171.612732 
1494299267.115745, 1494299267.115745, -1.497314, +0.035767, -0.048706, +4.931913, +19.964087, +168.835632 
1494299267.119692, 1494299267.119692, -1.497314, +0.035767, -0.048706, -3.460421, +22.008764, +168.835632 
1494299267.123643, 1494299267.123643, -1.497314, +0.035767, -0.048706, -3.460421, +22.008764, +168.835632 
1494299267.127632, 1494299267.127632, -1.497314, +0.035767, -0.048706, -10.799898, +23.504126, +165.020935 
1494299267.131581, 1494299267.131581, -1.497314, +0.035767, -0.048706, -10.799898, +23.504126, +165.020935 
1494299267.135534, 1494299267.135534, -1.489502, -0.082764, -0.042114, -10.799898, +23.504126, +165.020935 
1494299267.139483, 1494299267.139483, -1.489502, -0.082764, -0.042114, -16.689791, +24.572241, +160.412781 
1494299267.143433, 1494299267.143433, -1.489502, -0.082764, -0.042114, -16.689791, +24.572241, +160.412781 
1494299267.147426, 1494299267.147426, -1.489502, -0.082764, -0.042114, -16.689791, +24.572241, +160.412781 
1494299267.151374, 1494299267.151374, -1.489502, -0.082764, -0.042114, -19.649996, +25.167334, +155.758850 
1494299267.155279, 1494299267.155279, -1.474976, -0.075439, -0.024658, -19.649996, +25.167334, +155.758850 
1494299267.159028, 1494299267.159028, -1.474976, -0.075439, -0.024658, -19.649996, +25.167334, +147.946350 
1494299267.162784, 1494299267.162784, -1.474976, -0.075439, -0.024658, -22.854342, +24.816381, +150.570862 
1494299267.166666, 1494299267.166666, -1.474976, -0.075439, -0.024658, -22.854342, +24.816381, +150.570862 
1494299267.170618, 1494299267.170618, -1.474976, -0.075439, -0.024658, -26.760592, +23.794043, +144.955627 
1494299267.174607, 1494299267.174607, -1.429565, -0.072021, -0.012817, -27.447237, +23.794043, +144.955627 
1494299267.178558, 1494299267.178558, -1.429565, -0.072021, -0.012817, -27.447237, +23.794043, +144.955627 
1494299267.182508, 1494299267.182508, -1.429565, -0.072021, -0.012817, -33.550755, +22.634375, +138.150208 
1494299267.186476, 1494299267.186476, -1.429565, -0.072021, -0.012817, -33.550755, +22.634375, +138.150208 
1494299267.190538, 1494299267.190538, -1.429565, -0.072021, -0.012817, -33.550755, +22.634375, +138.150208 
1494299267.194535, 1494299267.194535, -1.365845, -0.206421, -0.035278, -38.952366, +20.528662, +130.093567 
1494299267.198492, 1494299267.198492, -1.365845, -0.206421, -0.035278, -38.952366, +20.528662, +130.093567 
1494299267.202437, 1494299267.202437, -1.365845, -0.206421, -0.035278, -38.952366, +20.528662, +122.281067 
1494299267.206343, 1494299267.206343, -1.365845, -0.206421, -0.035278, -43.896214, +18.209326, +120.205872 
1494299267.210096, 1494299267.210096, -1.365845, -0.206421, -0.035278, -43.896214, +18.209326, +120.205872 
1494299267.213851, 1494299267.213851, -1.281494, -0.377075, -0.115967, -43.896214, +18.209326, +107.495300 
1494299267.217831, 1494299267.217831, -1.281494, -0.377075, -0.115967, -48.717991, +16.057837, +107.495300 
1494299267.221784, 1494299267.221784, -1.281494, -0.377075, -0.115967, -48.717991, +16.057837, +107.495300 
1494299267.225736, 1494299267.225736, -1.281494, -0.377075, -0.115967, -52.959934, +14.654028, +92.373840 
1494299267.229685, 1494299267.229685, -1.281494, -0.377075, -0.115967, -52.959934, +14.654028, +92.373840 
1494299267.233636, 1494299267.233636, -1.211182, -0.665894, -0.188354, -52.959934, +14.654028, +92.373840 
1494299267.237632, 1494299267.237632, -1.211182, -0.665894, -0.188354, -52.074924, +13.234961, +74.749939 
1494299267.241582, 1494299267.241582, -1.211182, -0.665894, -0.188354, -52.074924, +13.234961, +74.749939 
1494299267.245537, 1494299267.245537, -1.211182, -0.665894, -0.188354, -52.074924, +13.234961, +74.749939 
1494299267.249482, 1494299267.249482, -1.211182, -0.665894, -0.188354, -41.866795, +13.860571, +56.500423 
1494299267.253427, 1494299267.253427, -1.186035, -0.734619, -0.160156, -41.866795, +13.860571, +56.500423 
1494299267.257266, 1494299267.257266, -1.186035, -0.734619, -0.160156, -41.866795, +13.860571, +37.243832 
1494299267.261021, 1494299267.261021, -1.186035, -0.734619, -0.160156, -27.676119, +14.623510, +37.243832 
1494299267.264837, 1494299267.264837, -1.186035, -0.734619, -0.160156, -27.676119, +14.623510, +37.243832 
1494299267.268788, 1494299267.268788, -1.186035, -0.734619, -0.160156, -14.523043, +13.204443, +16.583433 
1494299267.272732, 1494299267.272732, -1.154785, -0.786499, -0.104736, -14.523043, +13.204443, +16.583433 
1494299267.276691, 1494299267.276691, -1.140869, -0.786499, -0.104736, -14.523043, +13.204443, +16.583433 
1494299267.280640, 1494299267.280640, -1.140869, -0.786499, -0.104736, -5.047335, +11.358130, -4.458438 
1494299267.284591, 1494299267.284591, -1.140869, -0.786499, -0.104736, -5.047335, +11.358130, -4.458438 
1494299267.288536, 1494299267.288536, -1.140869, -0.786499, -0.104736, -5.047335, +11.358130, -4.458438 
1494299267.292480, 1494299267.292480, -1.109619, -0.780762, -0.147461, +0.171171, +8.291113, -25.454531 
1494299267.296440, 1494299267.296440, -1.122192, -0.780762, -0.147461, +0.171171, +8.291113, -25.454531 
1494299267.300386, 1494299267.300386, -1.122192, -0.780762, -0.147461, +0.171171, +8.291113, -44.985783 
1494299267.304343, 1494299267.304343, -1.122192, -0.780762, -0.147461, +3.177152, +7.314550, -44.665348 
1494299267.308095, 1494299267.308095, -1.122192, -0.780762, -0.147461, +3.177152, +7.314550, -44.665348 
1494299267.311842, 1494299267.311842, -1.122192, -0.780762, -0.236450, +3.177152, +7.314550, -58.932316 
1494299267.315661, 1494299267.315661, -1.142334, -0.769653, -0.236450, +3.772245, +12.655127, -58.932316 
1494299267.319613, 1494299267.319613, -1.142334, -0.769653, -0.236450, +3.772245, +12.655127, -58.932316 
1494299267.323556, 1494299267.323556, -1.142334, -0.769653, -0.236450, +22.311674, +11.144506, -73.657043 
1494299267.327516, 1494299267.327516, -1.142334, -0.769653, -0.236450, +22.311674, +11.144506, -73.657043 
1494299267.331471, 1494299267.331471, -1.142334, -0.769653, -0.116699, +22.311674, +11.144506, -73.657043 
1494299267.335392, 1494299267.335392, -1.275513, +1.833618, -0.116699, +46.267971, +7.299291, -65.752991 
1494299267.339252, 1494299267.339252, -1.275513, +1.833618, -0.116699, +46.267971, +7.299291, -65.752991 
1494299267.343011, 1494299267.343011, -1.275513, +1.833618, -0.116699, +46.267971, +7.299291, -65.752991 
1494299267.346988, 1494299267.346988, -1.275513, +1.833618, -0.116699, +52.218899, +7.665502, -47.060978 
1494299267.350936, 1494299267.350936, -1.275513, +1.833618, -0.116699, +52.218899, +7.665502, -47.060978 
1494299267.354874, 1494299267.354874, -1.367920, +1.005859, +0.098999, +52.218899, +7.665502, -47.060978 
1494299267.358619, 1494299267.358619, -1.367920, +1.005859, +0.098999, +6.305204, +7.406103, -43.215763 
1494299267.362362, 1494299267.362362, -1.367920, +1.005859, +0.098999, +6.305204, +7.406103, -43.215763 
1494299267.366249, 1494299267.366249, -1.367920, +1.005859, +0.098999, +6.305204, +7.406103, -69.430359 
1494299267.370188, 1494299267.370188, -1.367920, +1.005859, +0.098999, -32.146946, +7.116186, -69.430359 
1494299267.374134, 1494299267.374134, -1.905396, -0.597412, +0.043701, -32.146946, +7.116186, -69.430359 
1494299267.378082, 1494299267.378082, -1.905396, -0.597412, +0.043701, -1.949801, +12.594091, -90.792664 
1494299267.382026, 1494299267.382026, -1.905396, -0.597412, +0.043701, -1.949801, +12.594091, -90.792664 
1494299267.386067, 1494299267.386067, -1.905396, -0.597412, +0.043701, -1.949801, +12.594091, -90.792664 
1494299267.390013, 1494299267.390013, -1.905396, -0.597412, +0.043701, +5.771146, +20.727026, -96.591003 
1494299267.393960, 1494299267.393960, -1.173584, +0.436523, +0.026978, +5.771146, +20.727026, -96.591003 
1494299267.397915, 1494299267.397915, -1.173584, +0.436523, +0.026978, +5.771146, +20.727026, -96.591003 
1494299267.401854, 1494299267.401854, -1.173584, +0.436523, +0.026978, -12.386812, +21.566259, -97.781189 
1494299267.405738, 1494299267.405738, -1.173584, +0.436523, +0.026978, -12.386812, +21.566259, -97.781189 
1494299267.409490, 1494299267.409490, -1.173584, +0.436523, +0.026978, -12.386812, +21.566259, -97.781189 
1494299267.413247, 1494299267.413247, -0.940308, +0.300293, -0.226929, -19.207491, +22.436010, -95.095642 
1494299267.417155, 1494299267.417155, -0.940308, +0.300293, -0.226929, -19.207491, +22.436010, -95.095642 
1494299267.421106, 1494299267.421106, -0.940308, +0.300293, -0.226929, -19.207491, +22.573339, -89.343079 
1494299267.425065, 1494299267.425065, -0.940308, +0.300293, -0.226929, -19.939913, +22.573339, -89.343079 
1494299267.429011, 1494299267.429011, -0.940308, +0.300293, -0.226929, -19.939913, +22.573339, -89.343079 
1494299267.432961, 1494299267.432961, -0.964844, +0.453247, -0.520874, -31.872286, +22.344458, -84.094055 
1494299267.436943, 1494299267.436943, -0.964844, +0.453247, -0.520874, -31.872286, +22.344458, -84.094055 
1494299267.440888, 1494299267.440888, -0.964844, +0.453247, -0.520874, -31.872286, +22.344458, -84.094055 
1494299267.444848, 1494299267.444848, -0.964844, +0.453247, -0.520874, -46.627537, +19.338476, -79.485901 
1494299267.448795, 1494299267.448795, -0.964844, +0.453247, -0.520874, -46.627537, +19.338476, -79.485901 
1494299267.452743, 1494299267.452743, -1.214111, -0.129395, -0.329712, -46.627537, +19.338476, -79.485901 
1494299267.456595, 1494299267.456595, -1.214111, -0.129395, -0.329712, -51.418797, +16.042578, -76.708801 
1494299267.460346, 1494299267.460346, -1.214111, -0.129395, -0.329712, -51.418797, +16.042578, -76.708801 
1494299267.464101, 1494299267.464101, -1.214111, -0.129395, -0.329712, -51.418797, +16.042578, -75.640686 
1494299267.467915, 1494299267.467915, -1.214111, -0.129395, -0.329712, -43.880955, +11.541235, -75.640686 
1494299267.471661, 1494299267.471661, -1.328979, -0.117188, +0.056396, -43.880955, +11.541235, -75.640686 
1494299267.475483, 1494299267.475483, -1.328979, -0.117188, +0.056396, -24.349703, +7.726537, -73.626526 
1494299267.479423, 1494299267.479423, -1.328979, -0.117188, +0.056396, -24.242891, +7.726537, -73.626526 
1494299267.483372, 1494299267.483372, -1.328979, -0.117188, +0.056396, -24.242891, +7.726537, -73.626526 
1494299267.487333, 1494299267.487333, -1.328979, -0.117188, +0.056396, -10.677828, +8.886206, -70.528992 
1494299267.491388, 1494299267.491388, -1.147461, +0.092651, +0.016357, -10.677828, +8.886206, -70.528992 
1494299267.495339, 1494299267.495339, -1.147461, +0.092651, +0.016357, -10.677828, +8.886206, -70.528992 
1494299267.499285, 1494299267.499285, -1.147461, +0.092651, +0.016357, -2.865328, +12.929785, -67.355164 
1494299267.503229, 1494299267.503229, -1.147461, +0.092651, +0.016357, -2.865328, +12.929785, -67.355164 
1494299267.507218, 1494299267.507218, -1.147461, +0.092651, +0.016357, -2.865328, +12.929785, -67.355164 
1494299267.511160, 1494299267.511160, -1.065063, +0.081299, -0.006104, +0.766263, +16.286718, -63.769352 
1494299267.515088, 1494299267.515088, -1.065063, +0.081299, -0.006104, +0.766263, +16.286718, -63.769352 
1494299267.518841, 1494299267.518841, -1.065063, +0.081299, -0.006104, +0.766263, +20.192968, -60.870182 
1494299267.522586, 1494299267.522586, -1.065063, +0.081299, -0.006104, +2.200590, +19.353735, -60.870182 
1494299267.526458, 1494299267.526458, -1.065063, +0.081299, -0.006104, +2.200590, +19.353735, -60.870182 
1494299267.530406, 1494299267.530406, -1.065063, +0.117188, -0.130981, +0.873075, +22.588598, -58.077824 
1494299267.534357, 1494299267.534357, -1.072021, +0.117188, -0.130981, +0.873075, +22.588598, -58.077824 
1494299267.538304, 1494299267.538304, -1.072021, +0.117188, -0.130981, +0.873075, +22.588598, -58.077824 
1494299267.542251, 1494299267.542251, -1.072021, +0.117188, -0.130981, -1.675143, +24.465429, -54.278385 
1494299267.546209, 1494299267.546209, -1.072021, +0.117188, -0.130981, -1.675143, +24.465429, -54.278385 
1494299267.550154, 1494299267.550154, -1.072021, +0.054688, -0.244141, -1.675143, +24.465429, -54.278385 
1494299267.554099, 1494299267.554099, -1.114990, +0.042969, -0.244141, +0.751005, +23.839819, -50.570499 
1494299267.558052, 1494299267.558052, -1.114990, +0.042969, -0.244141, +0.751005, +23.839819, -50.570499 
1494299267.561998, 1494299267.561998, -1.114990, +0.042969, -0.244141, +0.751005, +23.839819, -46.542179 
1494299267.565877, 1494299267.565877, -1.114990, +0.042969, -0.244141, +5.557523, +21.566259, -46.542179 
1494299267.569623, 1494299267.569623, -1.114990, +0.042969, -0.282593, +5.557523, +21.566259, -46.542179 
1494299267.573374, 1494299267.573374, -1.099609, +0.055542, -0.282593, +5.557523, +19.307959, -42.223942 
1494299267.577277, 1494299267.577277, -1.099609, +0.055542, -0.282593, +10.776030, +19.307959, -42.223942 
1494299267.581226, 1494299267.581226, -1.099609, +0.055542, -0.282593, +10.776030, +19.307959, -42.223942 
1494299267.585232, 1494299267.585232, -1.099609, +0.055542, -0.282593, +15.323149, +17.461645, -38.393986 
1494299267.589183, 1494299267.589183, -1.099609, +0.055542, -0.282593, +15.323149, +17.461645, -38.393986 
1494299267.593132, 1494299267.593132, -1.108398, +0.020142, -0.161377, +15.323149, +17.461645, -38.393986 
1494299267.597101, 1494299267.597101, -1.108398, +0.020142, -0.161377, +19.748198, +16.561377, -35.143864 
1494299267.601052, 1494299267.601052, -1.108398, +0.020142, -0.161377, +19.748198, +16.561377, -35.143864 
1494299267.605011, 1494299267.605011, -1.108398, +0.020142, -0.161377, +19.748198, +16.561377, -35.143864 
1494299267.608960, 1494299267.608960, -1.108398, +0.020142, -0.161377, +21.029936, +17.171728, -33.190739 
1494299267.612903, 1494299267.612903, -1.147949, +0.081299, -0.135132, +21.029936, +17.171728, -33.190739 
1494299267.616747, 1494299267.616747, -1.147949, +0.081299, -0.135132, +21.029936, +17.171728, -32.259953 
1494299267.620504, 1494299267.620504, -1.147949, +0.081299, -0.135132, +19.565092, +18.514502, -32.259953 
1494299267.624251, 1494299267.624251, -1.147949, +0.081299, -0.135132, +19.565092, +18.514502, -32.259953 
1494299267.628253, 1494299267.628253, -1.147949, +0.081299, -0.135132, +17.505156, +18.407690, -31.985292 
1494299267.632206, 1494299267.632206, -1.120850, +0.052490, -0.175903, +17.505156, +18.407690, -31.985292 
1494299267.636159, 1494299267.636159, -1.120850, +0.052490, -0.175903, +17.505156, +18.407690, -31.985292 
1494299267.640217, 1494299267.640217, -1.120850, +0.052490, -0.175903, +14.865385, +17.309057, -31.542788 
1494299267.644170, 1494299267.644170, -1.120850, +0.052490, -0.175903, +14.865385, +17.309057, -31.542788 
1494299267.648138, 1494299267.648138, -1.120850, +0.052490, -0.175903, +14.865385, +17.309057, -31.542788 
1494299267.652085, 1494299267.652085, -1.150391, +0.021973, -0.211182, +13.659941, +15.539038, -30.154238 
1494299267.655966, 1494299267.655966, -1.150391, +0.021973, -0.211182, +13.659941, +15.539038, -30.154238 
1494299267.659719, 1494299267.659719, -1.150391, +0.021973, -0.211182, +13.659941, +15.539038, -30.154238 
1494299267.663472, 1494299267.663472, -1.150391, +0.021973, -0.211182, +17.474638, +13.234961, -28.460512 
1494299267.667427, 1494299267.667427, -1.150391, +0.021973, -0.211182, +17.474638, +13.234961, -28.460512 
1494299267.671378, 1494299267.671378, -1.173218, +0.061646, -0.221558, +17.474638, +11.022436, -26.858339 
1494299267.675333, 1494299267.675333, -1.173218, +0.061646, -0.221558, +22.891508, +11.022436, -26.858339 
1494299267.679286, 1494299267.679286, -1.173218, +0.061646, -0.221558, +22.891508, +11.022436, -26.858339 
1494299267.683233, 1494299267.683233, -1.173218, +0.061646, -0.221558, +24.142729, +9.679663, -25.439272 
1494299267.687226, 1494299267.687226, -1.173218, +0.061646, -0.221558, +24.142729, +9.679663, -25.439272 
1494299267.691174, 1494299267.691174, -1.148682, +0.095093, -0.246948, +24.142729, +9.679663, -25.439272 
1494299267.695153, 1494299267.695153, -1.148682, +0.095093, -0.246948, +22.052275, +8.046972, -25.286684 
1494299267.699098, 1494299267.699098, -1.148682, +0.095093, -0.246948, +22.052275, +8.046972, -25.286684 
1494299267.703042, 1494299267.703042, -1.148682, +0.095093, -0.246948, +22.052275, +8.046972, -25.286684 
1494299267.706922, 1494299267.706922, -1.148682, +0.095093, -0.246948, +18.252836, +7.238256, -24.752626 
1494299267.710672, 1494299267.710672, -1.136353, +0.001587, -0.183838, +18.252836, +7.238256, -24.752626 
1494299267.714421, 1494299267.714421, -1.136353, +0.001587, -0.183838, +18.252836, +7.238256, -24.752626 
1494299267.718165, 1494299267.718165, -1.136353, +0.001587, -0.183838, +17.154203, +7.039892, -23.623476 
1494299267.721915, 1494299267.721915, -1.136353, +0.001587, -0.183838, +17.154203, +7.039892, -23.623476 
1494299267.725744, 1494299267.725744, -1.136353, +0.001587, -0.183838, +17.154203, +7.039892, -21.670351 
1494299267.729701, 1494299267.729701, -1.134521, -0.012573, -0.197998, +19.168364, +7.299291, -21.670351 
1494299267.733649, 1494299267.733649, -1.134521, -0.012573, -0.197998, +19.168364, +7.299291, -21.670351 
1494299267.737633, 1494299267.737633, -1.134521, -0.012573, -0.197998, +21.823393, +7.818090, -19.869814 
1494299267.741584, 1494299267.741584, -1.134521, -0.012573, -0.197998, +21.823393, +7.818090, -19.869814 
1494299267.745535, 1494299267.745535, -1.134521, -0.012573, -0.197998, +21.823393, +7.818090, -19.869814 
1494299267.749487, 1494299267.749487, -1.137573, -0.021240, -0.204224, +24.829374, +7.680761, -18.206606 
1494299267.753439, 1494299267.753439, -1.137573, -0.021240, -0.204224, +24.829374, +7.680761, -18.206606 
1494299267.757437, 1494299267.757437, -1.137573, -0.021240, -0.204224, +24.829374, +7.680761, -18.206606 
1494299267.761384, 1494299267.761384, -1.137573, -0.021240, -0.204224, +26.339994, +6.658422, -17.382631 
1494299267.765287, 1494299267.765287, -1.137573, -0.021240, -0.204224, +26.339994, +6.658422, -17.382631 
1494299267.769039, 1494299267.769039, -1.106323, -0.010010, -0.219116, +26.339994, +6.658422, -17.169008 
1494299267.772798, 1494299267.772798, -1.124512, -0.010010, -0.219116, +27.514921, +6.368505, -17.169008 
1494299267.776690, 1494299267.776690, -1.124512, -0.010010, -0.219116, +27.514921, +6.368505, -17.169008 
1494299267.780636, 1494299267.780636, -1.124512, -0.010010, -0.219116, +28.644072, +6.658422, -16.634951 
1494299267.784600, 1494299267.784600, -1.124512, -0.010010, -0.219116, +28.644072, +6.658422, -16.634951 
1494299267.788547, 1494299267.788547, -1.124512, +0.007568, -0.214844, +28.644072, +6.658422, -16.634951 
1494299267.792599, 1494299267.792599, -1.120605, +0.007568, -0.214844, +28.369413, +6.246435, -16.818056 
1494299267.796554, 1494299267.796554, -1.120605, +0.007568, -0.214844, +28.369413, +6.246435, -16.818056 
1494299267.800495, 1494299267.800495, -1.120605, +0.007568, -0.214844, +28.369413, +6.246435, -16.818056 
1494299267.804455, 1494299267.804455, -1.120605, +0.007568, -0.214844, +26.217924, +6.383764, -17.138491 
1494299267.808402, 1494299267.808402, -1.120605, +0.008667, -0.227417, +26.217924, +6.383764, -17.138491 
1494299267.812347, 1494299267.812347, -1.106079, +0.008667, -0.227417, +26.217924, +6.383764, -17.138491 
1494299267.816229, 1494299267.816229, -1.106079, +0.008667, -0.227417, +23.746000, +6.170141, -17.916689 
1494299267.819973, 1494299267.819973, -1.106079, +0.008667, -0.227417, +23.746000, +6.170141, -17.916689 
1494299267.823725, 1494299267.823725, -1.106079, +0.008667, -0.227417, +23.746000, +6.170141, -18.603334 
1494299267.827507, 1494299267.827507, -1.106079, +0.008667, -0.227417, +22.098051, +5.773412, -18.603334 
1494299267.831258, 1494299267.831258, -1.091187, -0.028687, -0.213379, +22.098051, +5.773412, -18.603334 
1494299267.835046, 1494299267.835046, -1.091187, -0.028687, -0.213379, +20.465361, +5.437719, -18.481264 
1494299267.838990, 1494299267.838990, -1.091187, -0.028687, -0.213379, +20.465361, +5.437719, -18.481264 
1494299267.842936, 1494299267.842936, -1.091187, -0.028687, -0.213379, +20.465361, +5.437719, -18.481264 
1494299267.846898, 1494299267.846898, -1.091187, -0.028687, -0.213379, +20.282255, +5.666601, -18.542299 
1494299267.850843, 1494299267.850843, -1.113770, -0.034546, -0.212891, +20.282255, +5.666601, -18.542299 
1494299267.854795, 1494299267.854795, -1.113770, -0.034546, -0.212891, +20.282255, +5.666601, -18.542299 
1494299267.858743, 1494299267.858743, -1.113770, -0.034546, -0.212891, +19.885527, +5.269872, -19.000063 
1494299267.862694, 1494299267.862694, -1.113770, -0.034546, -0.212891, +19.885527, +5.269872, -19.000063 
1494299267.866543, 1494299267.866543, -1.113770, -0.034546, -0.212891, +19.885527, +5.269872, -19.000063 
1494299267.870298, 1494299267.870298, -1.133789, -0.008179, -0.226929, +18.985258, +4.766332, -19.595156 
1494299267.874052, 1494299267.874052, -1.133789, -0.008179, -0.226929, +18.985258, +4.766332, -19.595156 
1494299267.878040, 1494299267.878040, -1.133789, -0.008179, -0.226929, +18.985258, +4.766332, -20.403872 
1494299267.881985, 1494299267.881985, -1.133789, -0.008179, -0.226929, +18.023954, +4.903661, -20.403872 
1494299267.885940, 1494299267.885940, -1.133789, -0.008179, -0.226929, +18.023954, +4.903661, -20.403872 
1494299267.889882, 1494299267.889882, -1.153198, -0.033203, -0.226807, +17.108427, +4.369604, -21.563540 
1494299267.893822, 1494299267.893822, -1.153198, -0.033203, -0.226807, +17.108427, +4.369604, -21.563540 
1494299267.897772, 1494299267.897772, -1.153198, -0.033203, -0.226807, +17.108427, +4.369604, -21.563540 
1494299267.901723, 1494299267.901723, -1.153198, -0.033203, -0.226807, +17.642485, +4.384862, -21.960268 
1494299267.905628, 1494299267.905628, -1.153198, -0.033203, -0.226807, +17.642485, +4.384862, -21.960268 
1494299267.909373, 1494299267.909373, -1.136597, -0.056763, -0.210693, +17.642485, +4.384862, -21.960268 
1494299267.913124, 1494299267.913124, -1.136597, -0.056763, -0.210693, +18.680082, +4.323827, -21.914492 
1494299267.917050, 1494299267.917050, -1.136597, -0.056763, -0.210693, +18.680082, +4.323827, -21.914492 
1494299267.921003, 1494299267.921003, -1.136597, -0.056763, -0.210693, +18.680082, +4.323827, -21.914492 
1494299267.925000, 1494299267.925000, -1.136597, -0.056763, -0.210693, +19.641386, +4.598485, -22.524843 
1494299267.928942, 1494299267.928942, -1.139160, -0.046265, -0.201172, +19.641386, +4.598485, -22.524843 
1494299267.932892, 1494299267.932892, -1.139160, -0.046265, -0.201172, +19.641386, +4.567968, -23.730288 
1494299267.936850, 1494299267.936850, -1.139160, -0.046265, -0.201172, +19.717680, +4.567968, -23.730288 
1494299267.940904, 1494299267.940904, -1.139160, -0.046265, -0.201172, +19.717680, +4.567968, -23.730288 
1494299267.944891, 1494299267.944891, -1.139160, -0.046265, -0.201172, +19.443022, +4.461156, -24.996767 
1494299267.948846, 1494299267.948846, -1.167114, -0.012817, -0.214478, +19.443022, +4.461156, -24.996767 
1494299267.952797, 1494299267.952797, -1.167114, -0.012817, -0.214478, +19.443022, +4.461156, -24.996767 
1494299267.956653, 1494299267.956653, -1.167114, -0.012817, -0.214478, +19.443022, +4.644262, -26.949892 
1494299267.960401, 1494299267.960401, -1.167114, -0.012817, -0.214478, +19.443022, +4.644262, -26.949892 
1494299267.964152, 1494299267.964152, -1.167114, -0.012817, -0.214478, +19.443022, +4.644262, -26.949892 
1494299267.967903, 1494299267.967903, -1.172974, -0.009399, -0.211060, +18.985258, +4.690038, -29.406557 
1494299267.971650, 1494299267.971650, -1.172974, -0.009399, -0.211060, +18.985258, +4.690038, -29.406557 
1494299267.975475, 1494299267.975475, -1.172974, -0.009399, -0.211060, +18.985258, +4.690038, -29.406557 
1494299267.979423, 1494299267.979423, -1.172974, -0.009399, -0.211060, +19.259916, +4.415380, -32.137882 
1494299267.983370, 1494299267.983370, -1.172974, -0.009399, -0.211060, +19.259916, +4.415380, -32.137882 
1494299267.987328, 1494299267.987328, -1.141724, -0.045166, -0.259155, +19.259916, +4.659521, -35.723698 
1494299267.991276, 1494299267.991276, -1.145386, -0.045166, -0.259155, +18.130766, +4.659521, -35.723698 
1494299267.995230, 1494299267.995230, -1.145386, -0.045166, -0.259155, +18.130766, +4.659521, -35.723698 
1494299267.999182, 1494299267.999182, -1.145386, -0.045166, -0.259155, +18.344389, +4.354345, -39.477360 
1494299268.003129, 1494299268.003129, -1.145386, -0.045166, -0.259155, +18.344389, +4.354345, -39.477360 
1494299268.006959, 1494299268.006959, -1.145386, -0.035034, -0.219116, +18.344389, +4.354345, -39.477360 
1494299268.010711, 1494299268.010711, -1.183228, -0.035034, -0.219116, +17.611967, +3.835546, -43.002140 
1494299268.014474, 1494299268.014474, -1.183228, -0.035034, -0.219116, +17.611967, +3.835546, -43.002140 
1494299268.018419, 1494299268.018419, -1.183228, -0.035034, -0.219116, +17.611967, +3.835546, -43.002140 
1494299268.022370, 1494299268.022370, -1.183228, -0.035034, -0.219116, +15.384184, +3.148901, -46.420109 
1494299268.026330, 1494299268.026330, -1.183228, -0.035034, -0.205200, +15.384184, +3.148901, -46.420109 
1494299268.030272, 1494299268.030272, -1.238525, -0.067017, -0.205200, +15.384184, +3.148901, -49.563419 
1494299268.034218, 1494299268.034218, -1.238525, -0.067017, -0.205200, +13.659941, +1.302587, -49.563419 
1494299268.038165, 1494299268.038165, -1.238525, -0.067017, -0.205200, +13.659941, +1.302587, -49.563419 
1494299268.042113, 1494299268.042113, -1.238525, -0.067017, -0.205200, +12.652861, +0.387060, -52.828800 
1494299268.045995, 1494299268.045995, -1.238525, -0.067017, -0.173950, +12.652861, +0.387060, -52.828800 
1494299268.049751, 1494299268.049751, -1.248901, -0.056763, -0.176147, +12.652861, +0.387060, -52.828800 
1494299268.053502, 1494299268.053502, -1.248901, -0.056763, -0.176147, +11.294828, -0.055445, -55.911076 
1494299268.057450, 1494299268.057450, -1.248901, -0.056763, -0.176147, +11.294828, -0.055445, -55.911076 
1494299268.061397, 1494299268.061397, -1.248901, -0.056763, -0.176147, +11.294828, -0.055445, -55.911076 
1494299268.065354, 1494299268.065354, -1.248901, -0.056763, -0.176147, +9.784208, -1.230372, -59.847843 
1494299268.069300, 1494299268.069300, -1.268555, -0.035034, -0.152588, +9.784208, -1.230372, -59.847843 
1494299268.073249, 1494299268.073249, -1.268555, -0.035034, -0.152588, +9.784208, -1.230372, -59.847843 
1494299268.077244, 1494299268.077244, -1.268555, -0.035034, -0.152588, +6.457792, -2.725733, -64.089783 
1494299268.081191, 1494299268.081191, -1.268555, -0.035034, -0.152588, +6.457792, -2.725733, -64.089783 
1494299268.085140, 1494299268.085140, -1.268555, -0.035034, -0.152588, +6.457792, -2.725733, -69.842346 
1494299268.089079, 1494299268.089079, -1.288452, -0.043945, -0.228638, +2.780424, -4.388941, -69.842346 
1494299268.093136, 1494299268.093136, -1.288452, -0.043945, -0.228638, +2.780424, -4.388941, -69.842346 
1494299268.096956, 1494299268.096956, -1.288452, -0.043945, -0.228638, +2.032743, -6.631983, -75.289734 
1494299268.100704, 1494299268.100704, -1.288452, -0.043945, -0.228638, +2.032743, -6.631983, -75.289734 
1494299268.104448, 1494299268.104448, -1.288452, -0.043945, -0.228638, +2.032743, -6.631983, -75.289734 
1494299268.108389, 1494299268.108389, -1.378540, -0.055664, -0.248657, +4.809843, -8.447779, -80.477722 
1494299268.112336, 1494299268.112336, -1.378540, -0.055664, -0.248657, +4.809843, -8.447779, -80.477722 
1494299268.116291, 1494299268.116291, -1.378540, -0.055664, -0.248657, +4.809843, -8.447779, -80.477722 
1494299268.120239, 1494299268.120239, -1.378540, -0.055664, -0.248657, +7.693754, -11.072290, -85.070618 
1494299268.124189, 1494299268.124189, -1.378540, -0.055664, -0.248657, +7.693754, -11.072290, -85.070618 
1494299268.128147, 1494299268.128147, -1.498779, +0.013916, -0.174927, +7.693754, -11.072290, -88.976868 
1494299268.132096, 1494299268.132096, -1.498779, +0.013916, -0.174927, +6.869779, -15.360010, -90.853699 
1494299268.135975, 1494299268.135975, -1.498779, +0.013916, -0.174927, +6.869779, -15.360010, -90.853699 
1494299268.139723, 1494299268.139723, -1.498779, +0.013916, -0.174927, +6.869779, -19.556177, -97.262390 
1494299268.143476, 1494299268.143476, -1.498779, +0.013916, -0.174927, +3.085599, -19.556177, -97.262390 
1494299268.147433, 1494299268.147433, -1.532104, +0.081177, -0.206665, +3.085599, -19.556177, -97.262390 
1494299268.151379, 1494299268.151379, -1.532104, +0.081177, -0.206665, +0.522123, -21.295679, -104.144104 
1494299268.155327, 1494299268.155327, -1.532104, +0.081177, -0.206665, +0.522123, -21.295679, -104.144104 
1494299268.159276, 1494299268.159276, -1.532104, +0.081177, -0.206665, +0.522123, -21.295679, -104.144104 
1494299268.163230, 1494299268.163230, -1.532104, +0.081177, -0.206665, -0.500216, -22.440088, -112.109192 
1494299268.167222, 1494299268.167222, -1.593140, +0.132935, -0.092041, -0.500216, -22.440088, -112.109192 
1494299268.171168, 1494299268.171168, -1.593140, +0.132935, -0.092041, -0.500216, -22.440088, -112.109192 
1494299268.175093, 1494299268.175093, -1.593140, +0.132935, -0.092041, +0.628934, -24.759424, -120.165833 
1494299268.178848, 1494299268.178848, -1.593140, +0.132935, -0.092041, +0.628934, -24.759424, -120.165833 
1494299268.182597, 1494299268.182597, -1.593140, +0.132935, -0.092041, +0.628934, -24.759424, -127.978333 
1494299268.186462, 1494299268.186462, -1.713623, +0.265503, -0.101929, +4.535184, -26.880396, -127.383240 
1494299268.190408, 1494299268.190408, -1.713623, +0.265503, -0.101929, +4.535184, -26.880396, -127.383240 
1494299268.194363, 1494299268.194363, -1.713623, +0.265503, -0.101929, +12.347685, -27.094019, -133.318909 
1494299268.198317, 1494299268.198317, -1.713623, +0.265503, -0.101929, +12.073027, -27.094019, -133.318909 
1494299268.202271, 1494299268.202271, -1.713623, +0.265503, -0.101929, +12.073027, -27.094019, -133.318909 
1494299268.206230, 1494299268.206230, -1.726440, +0.346924, -0.087280, +27.820097, -25.125635, -136.584290 
1494299268.210182, 1494299268.210182, -1.726440, +0.346924, -0.087280, +27.820097, -25.125635, -136.584290 
1494299268.214136, 1494299268.214136, -1.726440, +0.346924, -0.087280, +27.820097, -25.125635, -136.584290 
1494299268.217910, 1494299268.217910, -1.726440, +0.346924, -0.087280, +47.824368, -22.867334, -137.698181 
1494299268.221664, 1494299268.221664, -1.726440, +0.346924, -0.087280, +47.824368, -22.867334, -137.698181 
1494299268.225569, 1494299268.225569, -1.507690, +0.765381, -0.261597, +47.824368, -22.867334, -137.698181 
1494299268.229326, 1494299268.229326, -1.517700, +0.765381, -0.261597, +58.429226, -19.907129, -144.763000 
1494299268.233086, 1494299268.233086, -1.517700, +0.765381, -0.261597, +58.429226, -19.907129, -144.763000 
1494299268.237125, 1494299268.237125, -1.517700, +0.765381, -0.261597, +58.429226, -19.907129, -154.101379 
1494299268.241162, 1494299268.241162, -1.517700, +0.765381, -0.261597, +43.872341, -14.658106, -154.101379 
1494299268.245125, 1494299268.245125, -1.517700, +0.212646, -0.210815, +43.872341, -14.658106, -154.101379 
1494299268.249073, 1494299268.249073, -1.455322, +0.212646, -0.210815, +5.603300, -10.370386, -164.278992 
1494299268.253015, 1494299268.253015, -1.455322, +0.212646, -0.210815, +5.603300, -10.370386, -164.278992 
1494299268.256968, 1494299268.256968, -1.455322, +0.212646, -0.210815, +5.603300, -10.370386, -164.278992 
1494299268.260905, 1494299268.260905, -1.455322, +0.212646, -0.210815, -31.368746, -6.250514, -172.610291 
1494299268.264843, 1494299268.264843, -1.455322, -0.693604, -0.190918, -31.368746, -6.250514, -172.610291 
1494299268.268597, 1494299268.268597, -1.688965, -0.696655, -0.190918, -31.368746, -6.250514, -172.610291 
1494299268.272345, 1494299268.272345, -1.688965, -0.696655, -0.190918, -32.314793, -4.465235, -172.595032 
1494299268.276233, 1494299268.276233, -1.688965, -0.696655, -0.190918, -32.314793, -4.465235, -172.595032 
1494299268.280182, 1494299268.280182, -1.688965, -0.696655, -0.190918, -32.314793, -4.465235, -172.595032 
1494299268.284130, 1494299268.284130, -1.688965, -0.696655, -0.222168, -0.072970, -3.168238, -161.395081 
1494299268.288085, 1494299268.288085, -1.497070, -0.067261, -0.237305, -0.072970, -3.168238, -161.395081 
1494299268.292024, 1494299268.292024, -1.497070, -0.067261, -0.237305, -0.072970, -3.168238, -147.356995 
1494299268.296014, 1494299268.296014, -1.497070, -0.067261, -0.237305, +30.978666, -1.672877, -147.356995 
1494299268.299963, 1494299268.299963, -1.497070, -0.067261, -0.237305, +30.978666, -1.672877, -147.356995 
1494299268.303913, 1494299268.303913, -1.497070, -0.067261, -0.143555, +32.214626, -1.962794, -132.128723 
1494299268.307863, 1494299268.307863, -1.224731, +0.149658, -0.133179, +32.214626, -1.962794, -132.128723 
1494299268.311806, 1494299268.311806, -1.224731, +0.149658, -0.133179, +32.214626, -1.962794, -132.128723 
1494299268.315733, 1494299268.315733, -1.224731, +0.149658, -0.133179, +13.522612, -1.642359, -118.319519 
1494299268.319484, 1494299268.319484, -1.224731, +0.149658, -0.133179, +13.522612, -1.642359, -118.319519 
1494299268.323234, 1494299268.323234, -1.224731, +0.149658, -0.133179, +13.522612, -1.642359, -118.319519 
1494299268.327133, 1494299268.327133, -1.223389, -0.320923, -0.258179, -1.736178, +1.027929, -111.269958 
1494299268.331077, 1494299268.331077, -1.223389, -0.320923, -0.258179, -1.736178, +1.027929, -111.269958 
1494299268.335026, 1494299268.335026, -1.223389, -0.320923, -0.258179, -1.736178, +1.027929, -99.551208 
1494299268.338975, 1494299268.338975, -1.223389, -0.320923, -0.258179, -13.943209, +8.367407, -102.435120 
1494299268.342924, 1494299268.342924, -1.223389, -0.320923, -0.258179, -13.943209, +8.367407, -102.435120 
1494299268.346888, 1494299268.346888, -0.952271, -0.448486, -0.322510, -16.644014, +12.243139, -90.716370 
1494299268.350835, 1494299268.350835, -0.952271, -0.448486, -0.322510, -16.644014, +12.243139, -90.716370 
1494299268.354793, 1494299268.354793, -0.952271, -0.448486, -0.322510, -16.644014, +12.243139, -90.716370 
1494299268.358736, 1494299268.358736, -0.952271, -0.448486, -0.322510, -18.627657, +13.006079, -78.692444 
1494299268.362687, 1494299268.362687, -0.952271, -0.448486, -0.322510, -18.627657, +13.006079, -78.692444 
1494299268.366539, 1494299268.366539, -0.512573, -0.172363, -0.243896, -18.627657, +13.006079, -78.692444 
1494299268.370295, 1494299268.370295, -0.512573, -0.172363, -0.243896, -4.406466, +6.490575, -63.677799 
1494299268.374034, 1494299268.374034, -0.512573, -0.172363, -0.243896, -4.406466, +6.490575, -63.677799 
1494299268.377967, 1494299268.377967, -0.512573, -0.172363, -0.243896, -4.406466, +6.490575, -63.677799 
1494299268.381907, 1494299268.381907, -0.512573, -0.172363, -0.243896, +15.048491, +1.775609, -37.768375 
1494299268.385867, 1494299268.385867, -0.748047, +0.102661, -0.205933, +15.048491, +1.775609, -37.768375 
1494299268.389811, 1494299268.389811, -0.748047, +0.102661, -0.205933, +15.048491, +1.775609, -13.003360 
1494299268.393865, 1494299268.393865, -0.748047, +0.102661, -0.205933, +19.931303, +0.326025, -13.003360 
1494299268.397829, 1494299268.397829, -0.748047, +0.102661, -0.205933, +19.931303, +0.326025, -13.003360 
1494299268.401780, 1494299268.401780, -0.748047, +0.102661, -0.205933, +31.253325, -4.648341, +11.212338 
1494299268.405734, 1494299268.405734, -0.397827, +0.548584, -0.057007, +31.253325, -4.648341, +11.212338 
1494299268.409681, 1494299268.409681, -0.397827, +0.548584, -0.057007, +31.253325, -4.648341, +11.212338 
1494299268.413635, 1494299268.413635, -0.397827, +0.548584, -0.057007, +32.062038, -10.995996, +39.380062 
1494299268.417480, 1494299268.417480, -0.397827, +0.548584, -0.057007, +32.062038, -10.995996, +39.380062 
1494299268.421231, 1494299268.421231, -0.397827, +0.548584, -0.057007, +32.062038, -10.995996, +39.380062 
1494299268.425052, 1494299268.425052, -0.292114, +0.340942, -0.093018, +21.304594, -16.382349, +64.160339 
1494299268.429015, 1494299268.429015, -0.292114, +0.340942, -0.093018, +21.304594, -16.382349, +64.160339 
1494299268.432970, 1494299268.432970, -0.292114, +0.340942, -0.093018, +21.304594, -16.382349, +83.691589 
1494299268.436928, 1494299268.436928, -0.292114, +0.340942, -0.093018, +8.212553, -20.959986, +83.050720 
1494299268.440881, 1494299268.440881, -0.292114, +0.340942, -0.093018, +8.212553, -20.959986, +83.050720 
1494299268.444846, 1494299268.444846, -0.403564, +0.188354, -0.133911, +0.400053, -24.042261, +101.513855 
1494299268.448796, 1494299268.448796, -0.403564, +0.188354, -0.133911, +1.544462, -24.042261, +101.513855 
1494299268.452742, 1494299268.452742, -0.403564, +0.188354, -0.133911, +1.544462, -24.042261, +101.513855 
1494299268.456702, 1494299268.456702, -0.403564, +0.188354, -0.133911, +0.888334, -26.437891, +119.076721 
1494299268.460648, 1494299268.460648, -0.403564, +0.188354, -0.133911, +0.888334, -26.437891, +119.076721 
1494299268.464609, 1494299268.464609, -0.510620, +0.187988, -0.106323, +0.888334, -26.437891, +119.076721 
1494299268.468368, 1494299268.468368, -0.510620, +0.187988, -0.106323, +3.894315, -28.452051, +137.860291 
1494299268.472114, 1494299268.472114, -0.510620, +0.187988, -0.106323, +3.894315, -28.452051, +137.860291 
1494299268.475873, 1494299268.475873, -0.510620, +0.187988, -0.106323, +3.894315, -28.452051, +137.860291 
1494299268.479612, 1494299268.479612, -0.510620, +0.187988, -0.106323, +10.913359, -29.001368, +156.384460 
1494299268.483365, 1494299268.483365, -0.510620, +0.213623, -0.125366, +10.913359, -29.001368, +156.384460 
1494299268.487285, 1494299268.487285, -0.631104, +0.213623, -0.125366, +10.913359, -29.001368, +156.384460 
1494299268.491242, 1494299268.491242, -0.631104, +0.213623, -0.125366, +16.787992, -28.467310, +174.206726 
1494299268.495199, 1494299268.495199, -0.631104, +0.213623, -0.125366, +16.787992, -28.467310, +174.206726 
1494299268.499153, 1494299268.499153, -0.631104, +0.213623, -0.125366, +20.694242, -26.315821, +190.594666 
1494299268.503104, 1494299268.503104, -0.631104, +0.053223, -0.145142, +19.153105, -26.315821, +190.594666 
1494299268.507064, 1494299268.507064, -0.699463, +0.053223, -0.145142, +19.153105, -26.315821, +190.594666 
1494299268.511023, 1494299268.511023, -0.699463, +0.053223, -0.145142, +22.952543, -23.737085, +204.113953 
1494299268.514997, 1494299268.514997, -0.699463, +0.053223, -0.145142, +22.952543, -23.737085, +204.113953 
1494299268.518752, 1494299268.518752, -0.699463, +0.053223, -0.145142, +22.952543, -23.737085, +204.113953 
1494299268.522508, 1494299268.522508, -0.699463, +0.053223, -0.152832, +29.376493, -20.456446, +215.268127 
1494299268.526422, 1494299268.526422, -0.839844, +0.065063, -0.152832, +29.376493, -20.456446, +215.268127 
1494299268.530375, 1494299268.530375, -0.839844, +0.065063, -0.152832, +29.376493, -20.456446, +215.268127 
1494299268.534335, 1494299268.534335, -0.839844, +0.065063, -0.152832, +30.841337, -16.916407, +225.369446 
1494299268.538287, 1494299268.538287, -0.839844, +0.065063, -0.152832, +30.841337, -16.916407, +225.369446 
1494299268.542346, 1494299268.542346, -0.839844, +0.065063, -0.123169, +30.841337, -13.010157, +234.890930 
1494299268.546318, 1494299268.546318, -1.070557, +0.020264, -0.123169, +27.301298, -13.239038, +234.890930 
1494299268.550267, 1494299268.550267, -1.070557, +0.020264, -0.123169, +27.301298, -13.239038, +234.890930 
1494299268.554221, 1494299268.554221, -1.070557, +0.020264, -0.123169, +23.242460, -10.004175, +243.329041 
1494299268.557980, 1494299268.557980, -1.070557, +0.020264, -0.123169, +23.242460, -10.004175, +243.329041 
1494299268.561737, 1494299268.561737, -1.070557, +0.020264, -0.123169, +23.242460, -10.004175, +243.329041 
1494299268.566050, 1494299268.566050, -1.213257, -0.071411, -0.084961, +23.242460, -7.013453, +249.691956 
1494299268.569795, 1494299268.569795, -1.213257, -0.071411, -0.084961, +23.242460, -7.013453, +249.691956 
1494299268.573540, 1494299268.573540, -1.213257, -0.071411, -0.084961, +23.242460, -7.013453, +249.691956 
1494299268.577505, 1494299268.577505, -1.213257, -0.071411, -0.084961, +20.709501, -4.068507, +256.237976 
