Calculating the offsets...
timestamp_before, timestamp_after, accel_x, accel_y, accel_z, gyro_x, gyro_y, gyro_z
1488856182.925995, 1488856182.925995, -1.144897, -0.181152, -0.379883, -15.926247, -20.746365, -62.477188 
1488856182.938279, 1488856182.938279, -1.144897, -0.181152, -0.379883, -15.926247, -20.746365, -62.477188 
1488856182.942073, 1488856182.942073, -1.144897, -0.181152, -0.379883, +0.461693, -20.181789, -51.933365 
1488856182.945829, 1488856182.945829, -1.144897, -0.181152, -0.379883, +0.461693, -20.181789, -51.933365 
1488856182.949571, 1488856182.949571, -1.144897, -0.181152, -0.415771, +0.461693, -20.181789, -51.933365 
1488856182.953334, 1488856182.953334, -1.101196, -0.162109, -0.415771, +21.762962, -18.945827, -42.503433 
1488856182.957070, 1488856182.957070, -1.101196, -0.162109, -0.415771, +21.762962, -18.945827, -42.503433 
1488856182.960804, 1488856182.960804, -1.101196, -0.162109, -0.415771, +21.762962, -18.945827, -42.503433 
1488856182.964612, 1488856182.964612, -1.101196, -0.162109, -0.415771, +31.116600, -18.808498, -36.857681 
1488856182.968360, 1488856182.968360, -1.101196, -0.162109, -0.415771, +31.116600, -18.808498, -36.857681 
1488856182.972103, 1488856182.972103, -1.151123, +0.112549, -0.309204, +31.116600, -18.808498, -36.857681 
1488856182.975971, 1488856182.975971, -1.151123, +0.112549, -0.309204, +30.948753, -20.425930, -34.736710 
1488856182.979713, 1488856182.979713, -1.151123, +0.112549, -0.309204, +30.948753, -20.425930, -34.736710 
1488856182.983609, 1488856182.983609, -1.151123, +0.112549, -0.309204, +30.948753, -20.425930, -34.553604 
1488856182.987358, 1488856182.987358, -1.151123, +0.112549, -0.309204, +23.426170, -21.356716, -34.553604 
1488856182.991104, 1488856182.991104, -1.059937, -0.057983, -0.380615, +23.426170, -21.356716, -34.553604 
1488856182.994969, 1488856182.994969, -1.059937, -0.057983, -0.380615, +19.519920, -20.959988, -35.163956 
1488856182.998922, 1488856182.998922, -1.059937, -0.057983, -0.380615, +19.138451, -20.959988, -35.163956 
1488856183.002868, 1488856183.002868, -1.059937, -0.057983, -0.380615, +19.138451, -20.959988, -35.163956 
1488856183.006838, 1488856183.006838, -1.059937, -0.057983, -0.380615, +20.618553, -20.502224, -32.875137 
1488856183.010593, 1488856183.010593, -1.114380, -0.059448, -0.366333, +20.618553, -20.502224, -32.875137 
1488856183.014458, 1488856183.014458, -1.114380, -0.059448, -0.366333, +20.618553, -20.502224, -32.875137 
1488856183.018962, 1488856183.018962, -1.114380, -0.059448, -0.366333, +26.538963, -20.792141, -30.128555 
1488856183.022918, 1488856183.022918, -1.114380, -0.059448, -0.366333, +26.538963, -20.792141, -30.128555 
1488856183.026708, 1488856183.026708, -1.114380, -0.059448, -0.366333, +26.538963, -20.792141, -30.128555 
1488856183.030459, 1488856183.030459, -1.081787, -0.027588, -0.311523, +31.253929, -21.478786, -27.809219 
1488856183.034313, 1488856183.034313, -1.081787, -0.027588, -0.311523, +31.253929, -21.478786, -27.809219 
1488856183.038258, 1488856183.038258, -1.081787, -0.027588, -0.311523, +31.253929, -21.478786, -26.649551 
1488856183.042203, 1488856183.042203, -1.081787, -0.027588, -0.311523, +34.519310, -22.089138, -26.649551 
1488856183.046160, 1488856183.046160, -1.081787, -0.027588, -0.311523, +34.519310, -22.089138, -26.649551 
1488856183.050099, 1488856183.050099, -1.079712, +0.143677, -0.337402, +31.925316, -23.035183, -26.908951 
1488856183.054043, 1488856183.054043, -1.079712, +0.143677, -0.337402, +31.925316, -23.035183, -26.908951 
1488856183.057790, 1488856183.057790, -1.079712, +0.143677, -0.337402, +31.925316, -23.035183, -26.908951 
1488856183.061539, 1488856183.061539, -1.079712, +0.143677, -0.337402, +26.188011, -23.798122, -28.572159 
1488856183.065337, 1488856183.065337, -1.079712, +0.143677, -0.337402, +26.188011, -23.798122, -28.572159 
1488856183.069087, 1488856183.069087, -1.110962, -0.044434, -0.280029, +26.188011, -23.798122, -28.572159 
1488856183.072845, 1488856183.072845, -1.102905, -0.044434, -0.280029, +20.649071, -24.210110, -30.616837 
1488856183.076683, 1488856183.076683, -1.102905, -0.044434, -0.280029, +20.649071, -24.210110, -30.616837 
1488856183.080605, 1488856183.080605, -1.102905, -0.044434, -0.280029, +20.649071, -24.210110, -30.616837 
1488856183.084477, 1488856183.084477, -1.102905, -0.044434, -0.280029, +19.367332, -25.720730, -31.959610 
1488856183.088417, 1488856183.088417, -1.102905, -0.044434, -0.289429, +19.367332, -25.720730, -31.959610 
1488856183.092363, 1488856183.092363, -1.044922, -0.049194, -0.289429, +19.367332, -25.720730, -30.952530 
1488856183.096321, 1488856183.096321, -1.044922, -0.049194, -0.289429, +19.977684, -26.315823, -30.952530 
1488856183.100263, 1488856183.100263, -1.044922, -0.049194, -0.289429, +19.977684, -26.315823, -30.952530 
1488856183.104210, 1488856183.104210, -1.044922, -0.049194, -0.289429, +19.474144, -25.964870, -30.067520 
1488856183.108156, 1488856183.108156, -1.044922, -0.049194, -0.257080, +19.474144, -25.964870, -30.067520 
1488856183.112100, 1488856183.112100, -1.040039, -0.106934, -0.257080, +19.474144, -25.964870, -30.067520 
1488856183.116083, 1488856183.116083, -1.040039, -0.106934, -0.257080, +17.887230, -25.812283, -30.143814 
1488856183.120036, 1488856183.120036, -1.040039, -0.106934, -0.257080, +17.887230, -25.812283, -30.143814 
1488856183.123960, 1488856183.123960, -1.040039, -0.106934, -0.257080, +17.887230, -25.812283, -30.143814 
1488856183.127717, 1488856183.127717, -1.040039, -0.106934, -0.257080, +16.483421, -25.415554, -30.220108 
1488856183.131586, 1488856183.131586, -1.020752, -0.074341, -0.251831, +16.483421, -25.415554, -30.220108 
1488856183.136161, 1488856183.136161, -1.020752, -0.074341, -0.251831, +16.483421, -25.415554, -29.945450 
1488856183.139903, 1488856183.139903, -1.020752, -0.074341, -0.251831, +15.842552, -24.683132, -29.945450 
1488856183.143717, 1488856183.143717, -1.020752, -0.074341, -0.251831, +15.842552, -24.683132, -29.945450 
1488856183.147460, 1488856183.147460, -1.020752, -0.074341, -0.251831, +15.842552, -24.240627, -29.884415 
1488856183.151199, 1488856183.151199, -1.053345, -0.136841, -0.221191, +14.164085, -24.240627, -29.884415 
1488856183.155056, 1488856183.155056, -1.053345, -0.136841, -0.221191, +14.164085, -24.240627, -29.884415 
1488856183.158790, 1488856183.158790, -1.053345, -0.136841, -0.221191, +12.790794, -23.782864, -30.342178 
1488856183.162534, 1488856183.162534, -1.053345, -0.136841, -0.221191, +12.790794, -23.782864, -30.342178 
1488856183.166334, 1488856183.166334, -1.053345, -0.136841, -0.221191, +12.790794, -23.782864, -30.342178 
1488856183.170074, 1488856183.170074, -1.085205, -0.084229, -0.221191, +11.737938, -23.126736, -29.808121 
1488856183.173864, 1488856183.173864, -1.085205, -0.084229, -0.221191, +11.737938, -23.126736, -29.808121 
1488856183.177605, 1488856183.177605, -1.085205, -0.084229, -0.221191, +11.737938, -23.126736, -29.808121 
1488856183.181347, 1488856183.181347, -1.085205, -0.084229, -0.221191, +11.402245, -22.485867, -29.151993 
1488856183.185189, 1488856183.185189, -1.085205, -0.084229, -0.221191, +11.402245, -22.485867, -29.151993 
1488856183.188942, 1488856183.188942, -1.101929, -0.129639, -0.217285, +11.402245, -22.485867, -29.151993 
1488856183.192694, 1488856183.192694, -1.101929, -0.129639, -0.217285, +10.715599, -21.967068, -29.167252 
1488856183.196650, 1488856183.196650, -1.101929, -0.129639, -0.217285, +10.715599, -21.967068, -29.167252 
1488856183.200603, 1488856183.200603, -1.101929, -0.129639, -0.217285, +10.715599, -21.967068, -29.167252 
1488856183.204554, 1488856183.204554, -1.101929, -0.129639, -0.217285, +10.227318, -21.692410, -28.770523 
1488856183.208496, 1488856183.208496, -1.103760, -0.056519, -0.261719, +10.227318, -21.692410, -28.770523 
1488856183.212441, 1488856183.212441, -1.103760, -0.056519, -0.261719, +10.227318, -21.692410, -28.221207 
1488856183.216403, 1488856183.216403, -1.103760, -0.056519, -0.261719, +9.235497, -21.524563, -28.221207 
1488856183.220358, 1488856183.220358, -1.103760, -0.056519, -0.261719, +9.235497, -21.524563, -28.221207 
1488856183.224260, 1488856183.224260, -1.103760, -0.056519, -0.261719, +8.731956, -21.341457, -28.556900 
1488856183.228120, 1488856183.228120, -1.138794, -0.192993, -0.217529, +8.731956, -21.341457, -28.556900 
1488856183.231872, 1488856183.231872, -1.138794, -0.192993, -0.217529, +8.731956, -21.341457, -28.556900 
1488856183.235728, 1488856183.235728, -1.138794, -0.192993, -0.217529, +10.685081, -21.463528, -28.984146 
1488856183.239482, 1488856183.239482, -1.138794, -0.192993, -0.217529, +10.685081, -21.463528, -28.984146 
1488856183.243286, 1488856183.243286, -1.138794, -0.192993, -0.217529, +10.685081, -21.463528, -28.984146 
1488856183.247201, 1488856183.247201, -1.138794, -0.067993, -0.329468, +12.821312, -22.272243, -28.633194 
1488856183.251194, 1488856183.251194, -1.155884, -0.093384, -0.329468, +12.821312, -22.272243, -28.633194 
1488856183.255147, 1488856183.255147, -1.155884, -0.093384, -0.329468, +12.821312, -22.272243, -28.633194 
1488856183.259088, 1488856183.259088, -1.155884, -0.093384, -0.329468, +14.972801, -22.455349, -27.961807 
1488856183.263052, 1488856183.263052, -1.155884, -0.093384, -0.329468, +14.972801, -22.455349, -27.961807 
1488856183.266991, 1488856183.266991, -1.155884, -0.093384, -0.229858, +14.972801, -22.455349, -28.556900 
1488856183.270943, 1488856183.270943, -1.222900, -0.114136, -0.229858, +16.925926, -23.019924, -28.556900 
1488856183.274897, 1488856183.274897, -1.222900, -0.114136, -0.229858, +16.925926, -23.019924, -28.556900 
1488856183.278839, 1488856183.278839, -1.222900, -0.114136, -0.229858, +18.070335, -26.117458, -30.769424 
1488856183.282786, 1488856183.282786, -1.222900, -0.114136, -0.229858, +18.070335, -26.117458, -30.769424 
1488856183.286562, 1488856183.286562, -1.222900, -0.114136, -0.323608, +18.070335, -26.117458, -30.769424 
1488856183.290316, 1488856183.290316, -1.166260, +0.046997, -0.315186, +15.415306, -30.283108, -33.516006 
1488856183.294169, 1488856183.294169, -1.166260, +0.046997, -0.315186, +15.415306, -30.283108, -33.516006 
1488856183.297927, 1488856183.297927, -1.166260, +0.046997, -0.315186, +15.415306, -30.283108, -33.516006 
1488856183.301675, 1488856183.301675, -1.166260, +0.046997, -0.315186, +10.868187, -33.090725, -37.849503 
1488856183.305633, 1488856183.305633, -1.166260, +0.046997, -0.315186, +10.868187, -33.090725, -37.849503 
1488856183.309575, 1488856183.309575, -1.214111, -0.038696, -0.357056, +10.868187, -33.090725, -37.849503 
1488856183.313532, 1488856183.313532, -1.214111, -0.038696, -0.357056, +6.015892, -36.447659, -42.564468 
1488856183.317475, 1488856183.317475, -1.214111, -0.038696, -0.357056, +6.015892, -36.447659, -42.564468 
1488856183.321568, 1488856183.321568, -1.214111, -0.038696, -0.357056, +6.015892, -39.697781, -45.967178 
1488856183.325500, 1488856183.325500, -1.214111, -0.038696, -0.357056, +4.139061, -39.697781, -45.967178 
1488856183.329371, 1488856183.329371, -1.217529, -0.133789, -0.398071, +4.139061, -39.697781, -45.967178 
1488856183.333297, 1488856183.333297, -1.217529, -0.133789, -0.398071, +7.312889, -43.771877, -47.905045 
1488856183.337246, 1488856183.337246, -1.217529, -0.133789, -0.398071, +7.312889, -43.771877, -47.905045 
1488856183.341189, 1488856183.341189, -1.217529, -0.133789, -0.398071, +7.312889, -43.771877, -47.905045 
1488856183.345146, 1488856183.345146, -1.217529, -0.133789, -0.398071, +13.813133, -46.823635, -49.675064 
1488856183.349094, 1488856183.349094, -1.241699, -0.177612, -0.408203, +13.813133, -46.823635, -49.675064 
1488856183.353043, 1488856183.353043, -1.241699, -0.177612, -0.408203, +13.813133, -46.823635, -49.675064 
1488856183.356993, 1488856183.356993, -1.241699, -0.177612, -0.408203, +20.252342, -49.921169, -51.139908 
1488856183.360944, 1488856183.360944, -1.241699, -0.177612, -0.408203, +20.252342, -49.921169, -51.139908 
1488856183.364806, 1488856183.364806, -1.241699, -0.177612, -0.408203, +20.252342, -49.921169, -52.696304 
1488856183.368555, 1488856183.368555, -1.275146, -0.155640, -0.401611, +25.776024, -52.408352, -52.696304 
1488856183.372307, 1488856183.372307, -1.275146, -0.155640, -0.401611, +25.776024, -52.408352, -52.696304 
1488856183.376174, 1488856183.376174, -1.275146, -0.155640, -0.401611, +29.682274, -55.582180, -54.145889 
1488856183.379927, 1488856183.379927, -1.275146, -0.155640, -0.401611, +30.307884, -55.582180, -54.145889 
1488856183.383815, 1488856183.383815, -1.275146, -0.155640, -0.401611, +30.307884, -55.582180, -54.145889 
1488856183.387568, 1488856183.387568, -1.345215, -0.194214, -0.310913, +34.687157, -58.862820, -56.205826 
1488856183.391313, 1488856183.391313, -1.345215, -0.194214, -0.310913, +34.687157, -58.862820, -56.205826 
1488856183.395248, 1488856183.395248, -1.345215, -0.194214, -0.310913, +34.687157, -58.862820, -56.205826 
1488856183.399167, 1488856183.399167, -1.345215, -0.194214, -0.310913, +39.844627, -62.128201, -59.043961 
1488856183.403094, 1488856183.403094, -1.345215, -0.194214, -0.310913, +39.844627, -62.128201, -59.043961 
1488856183.407018, 1488856183.407018, -1.339355, -0.001343, -0.313354, +39.844627, -62.128201, -59.043961 
1488856183.410936, 1488856183.410936, -1.339355, -0.001343, -0.313354, +46.131248, -65.225739, -60.875015 
1488856183.414870, 1488856183.414870, -1.339355, -0.001343, -0.313354, +46.131248, -65.225739, -60.875015 
1488856183.418785, 1488856183.418785, -1.339355, -0.001343, -0.313354, +46.131248, -65.225739, -64.781265 
1488856183.422708, 1488856183.422708, -1.339355, -0.001343, -0.313354, +46.039696, -69.406647, -64.292984 
1488856183.426558, 1488856183.426558, -1.467163, +0.036377, -0.432983, +46.039696, -69.406647, -64.292984 
1488856183.430310, 1488856183.430310, -1.467163, +0.036377, -0.432983, +46.039696, -73.312897, -69.984512 
1488856183.434131, 1488856183.434131, -1.467163, +0.036377, -0.432983, +46.680565, -73.358673, -69.984512 
1488856183.437886, 1488856183.437886, -1.467163, +0.036377, -0.432983, +46.680565, -73.358673, -69.984512 
1488856183.441633, 1488856183.441633, -1.467163, +0.036377, -0.432983, +46.680565, -76.196808, -75.782852 
1488856183.445542, 1488856183.445542, -1.467163, +0.036377, -0.526978, +48.099632, -76.196808, -75.782852 
1488856183.449684, 1488856183.449684, -1.532715, +0.208130, -0.526978, +48.099632, -76.196808, -75.782852 
1488856183.454057, 1488856183.454057, -1.532715, +0.208130, -0.526978, +52.387352, -78.287262, -80.680923 
1488856183.458009, 1488856183.458009, -1.532715, +0.208130, -0.526978, +52.387352, -78.287262, -80.680923 
1488856183.461954, 1488856183.461954, -1.532715, +0.208130, -0.526978, +52.387352, -78.287262, -80.680923 
1488856183.465908, 1488856183.465908, -1.532715, +0.158691, -0.512817, +57.972069, -80.484528, -85.777359 
1488856183.469854, 1488856183.469854, -1.737671, +0.158691, -0.512817, +57.972069, -80.484528, -85.777359 
1488856183.473766, 1488856183.473766, -1.737671, +0.158691, -0.512817, +57.972069, -80.484528, -91.301041 
1488856183.477519, 1488856183.477519, -1.737671, +0.158691, -0.512817, +64.914818, -83.749908, -91.301041 
1488856183.481262, 1488856183.481262, -1.737671, +0.158691, -0.512817, +64.914818, -83.749908, -91.301041 
1488856183.485037, 1488856183.485037, -1.737671, +0.158691, -0.575317, +64.914818, -85.428375, -93.391495 
1488856183.488789, 1488856183.488789, -1.799927, +0.299438, -0.582031, +74.833031, -85.428375, -93.391495 
1488856183.492542, 1488856183.492542, -1.799927, +0.299438, -0.582031, +74.833031, -85.428375, -93.391495 
1488856183.496350, 1488856183.496350, -1.799927, +0.299438, -0.582031, +92.273827, -86.511749, -91.621475 
1488856183.500097, 1488856183.500097, -1.799927, +0.299438, -0.582031, +92.273827, -86.511749, -91.621475 
1488856183.503992, 1488856183.503992, -1.799927, +0.299438, -0.582031, +92.273827, -86.511749, -91.621475 
1488856183.507743, 1488856183.507743, -1.689209, +0.107300, -0.473755, +107.318993, -86.557526, -87.669449 
1488856183.511490, 1488856183.511490, -1.689209, +0.107300, -0.473755, +107.318993, -86.557526, -87.669449 
1488856183.515484, 1488856183.515484, -1.689209, +0.107300, -0.473755, +107.318993, -86.557526, -87.669449 
1488856183.519429, 1488856183.519429, -1.689209, +0.107300, -0.473755, +114.566917, -88.937897, -83.198624 
1488856183.523373, 1488856183.523373, -1.689209, +0.107300, -0.473755, +114.566917, -88.937897, -83.198624 
1488856183.527226, 1488856183.527226, -1.455688, +0.070312, -0.500366, +114.566917, -88.937897, -83.198624 
1488856183.530971, 1488856183.530971, -1.455688, +0.070312, -0.500366, +106.006737, -94.049591, -82.908707 
1488856183.534812, 1488856183.534812, -1.455688, +0.070312, -0.500366, +106.006737, -94.049591, -82.908707 
1488856183.538765, 1488856183.538765, -1.455688, +0.070312, -0.500366, +106.006737, -94.049591, -86.036758 
1488856183.542707, 1488856183.542707, -1.455688, +0.070312, -0.500366, +76.969261, -92.905182, -86.036758 
1488856183.546698, 1488856183.546698, -1.142090, -0.100708, -0.408691, +76.969261, -92.905182, -86.036758 
1488856183.550643, 1488856183.550643, -1.142090, -0.100708, -0.408691, +44.391747, -82.544464, -90.995865 
1488856183.554599, 1488856183.554599, -1.142090, -0.100708, -0.408691, +44.391747, -82.544464, -90.995865 
1488856183.558547, 1488856183.558547, -1.142090, -0.100708, -0.408691, +44.391747, -82.544464, -90.995865 
1488856183.562487, 1488856183.562487, -1.142090, -0.100708, -0.408691, +23.151512, -67.545074, -90.599136 
1488856183.566445, 1488856183.566445, -0.969849, -0.510254, -0.284058, +23.151512, -67.545074, -90.599136 
1488856183.570683, 1488856183.570683, -0.969849, -0.510254, -0.284058, +23.151512, -67.545074, -90.599136 
1488856183.574995, 1488856183.574995, -0.969849, -0.510254, -0.284058, +18.680687, -55.643215, -85.395889 
1488856183.578741, 1488856183.578741, -0.969849, -0.510254, -0.284058, +18.680687, -55.643215, -85.395889 
1488856183.582490, 1488856183.582490, -0.969849, -0.510254, -0.284058, +18.680687, -55.643215, -72.670059 
1488856183.586422, 1488856183.586422, -0.658813, -0.782227, -0.228394, +39.585228, -43.695583, -72.670059 
1488856183.590363, 1488856183.590363, -0.658813, -0.782227, -0.228394, +39.585228, -43.695583, -72.670059 
1488856183.594320, 1488856183.594320, -0.658813, -0.782227, -0.228394, +66.608543, -26.788845, -53.306656 
1488856183.598259, 1488856183.598259, -0.658813, -0.782227, -0.228394, +66.608543, -26.788845, -53.306656 
1488856183.602203, 1488856183.602203, -0.658813, -0.782227, -0.228394, +66.608543, -26.788845, -53.306656 
1488856183.606004, 1488856183.606004, -0.438110, +0.091675, -0.444336, +88.550682, -16.245022, -29.502945 
1488856183.609758, 1488856183.609758, -0.438110, +0.091675, -0.444336, +88.550682, -16.245022, -29.502945 
1488856183.613520, 1488856183.613520, -0.438110, +0.091675, -0.444336, +88.550682, -16.245022, -29.502945 
1488856183.617267, 1488856183.617267, -0.438110, +0.091675, -0.444336, +82.889671, -6.418362, -9.513931 
1488856183.621016, 1488856183.621016, -0.438110, +0.091675, -0.444336, +82.889671, -6.418362, -9.513931 
1488856183.624934, 1488856183.624934, -0.156860, +0.652832, -0.163574, +82.889671, -6.418362, -9.513931 
1488856183.628684, 1488856183.628684, -0.186279, +0.652832, -0.163574, +69.461937, +0.509129, +10.551376 
1488856183.632431, 1488856183.632431, -0.186279, +0.652832, -0.163574, +69.461937, +0.509129, +10.551376 
1488856183.636421, 1488856183.636421, -0.186279, +0.652832, -0.163574, +69.461937, +0.509129, +10.551376 
1488856183.640344, 1488856183.640344, -0.186279, +0.652832, -0.163574, +55.225487, +7.085667, +24.467392 
1488856183.644268, 1488856183.644268, -0.186279, +0.277832, +0.059204, +55.225487, +7.085667, +24.467392 
1488856183.648184, 1488856183.648184, -0.259155, +0.275757, +0.059204, +55.225487, +14.898167, +32.051010 
1488856183.652101, 1488856183.652101, -0.259155, +0.275757, +0.059204, +34.916039, +15.386448, +32.051010 
1488856183.656025, 1488856183.656025, -0.259155, +0.275757, +0.059204, +34.916039, +15.386448, +32.051010 
1488856183.659942, 1488856183.659942, -0.259155, +0.275757, +0.059204, +16.300316, +28.219090, +41.694565 
1488856183.663877, 1488856183.663877, -0.259155, +0.275757, -0.140015, +16.300316, +28.219090, +41.694565 
1488856183.667798, 1488856183.667798, -0.314819, +0.159912, -0.140015, +16.300316, +28.219090, +41.694565 
1488856183.671721, 1488856183.671721, -0.314819, +0.159912, -0.140015, +2.781029, +45.888767, +55.442734 
1488856183.675795, 1488856183.675795, -0.314819, +0.159912, -0.140015, +2.781029, +45.888767, +55.442734 
1488856183.679711, 1488856183.679711, -0.314819, +0.159912, -0.140015, +2.781029, +45.888767, +55.442734 
1488856183.683666, 1488856183.683666, -0.314819, +0.159912, -0.139038, -8.998756, +60.232029, +72.105331 
1488856183.687581, 1488856183.687581, -0.411133, +0.225098, -0.139038, -8.998756, +60.232029, +72.105331 
1488856183.691648, 1488856183.691648, -0.411133, +0.225098, -0.139038, -8.998756, +71.950775, +87.806625 
1488856183.695757, 1488856183.695757, -0.411133, +0.225098, -0.139038, -14.949684, +72.362762, +87.806625 
1488856183.699711, 1488856183.699711, -0.411133, +0.225098, -0.139038, -14.949684, +72.362762, +87.806625 
1488856183.703674, 1488856183.703674, -0.411133, +0.350098, -0.139526, -22.258644, +82.906586, +102.668686 
1488856183.707624, 1488856183.707624, -0.473877, +0.361328, -0.139526, -22.258644, +82.906586, +102.668686 
1488856183.711569, 1488856183.711569, -0.473877, +0.361328, -0.139526, -22.258644, +82.906586, +102.668686 
1488856183.715520, 1488856183.715520, -0.473877, +0.361328, -0.139526, -39.409523, +94.854218, +113.410873 
1488856183.719467, 1488856183.719467, -0.473877, +0.361328, -0.139526, -39.409523, +94.854218, +113.410873 
1488856183.723402, 1488856183.723402, -0.473877, +0.361328, -0.038330, -39.409523, +94.854218, +113.410873 
1488856183.727151, 1488856183.727151, -0.616699, +0.398682, -0.038330, -64.571266, +108.816010, +119.834824 
1488856183.730899, 1488856183.730899, -0.616699, +0.398682, -0.038330, -64.571266, +108.816010, +119.834824 
1488856183.734663, 1488856183.734663, -0.616699, +0.398682, -0.038330, -64.571266, +108.816010, +119.834824 
1488856183.738416, 1488856183.738416, -0.616699, +0.398682, -0.038330, -89.733009, +120.076996, +125.236435 
1488856183.742542, 1488856183.742542, -0.616699, +0.398682, -0.038330, -89.733009, +120.076996, +125.236435 
1488856183.746360, 1488856183.746360, -0.847900, +0.071167, -0.155396, -89.733009, +123.845917, +132.621689 
1488856183.750107, 1488856183.750107, -0.847900, +0.071167, -0.155396, -91.991310, +123.845917, +132.621689 
1488856183.753892, 1488856183.753892, -0.847900, +0.071167, -0.155396, -91.991310, +123.845917, +132.621689 
1488856183.757643, 1488856183.757643, -0.847900, +0.071167, -0.155396, -76.000099, +119.420868, +145.072861 
1488856183.761379, 1488856183.761379, -0.847900, +0.071167, -0.155396, -76.000099, +119.420868, +145.072861 
1488856183.765183, 1488856183.765183, -1.156982, +0.058716, -0.169067, -76.000099, +119.420868, +145.072861 
1488856183.768931, 1488856183.768931, -1.156982, +0.058716, -0.169067, -64.342384, +112.890106, +160.652084 
1488856183.772681, 1488856183.772681, -1.156982, +0.058716, -0.169067, -64.342384, +112.890106, +160.652084 
1488856183.776439, 1488856183.776439, -1.156982, +0.058716, -0.169067, -64.342384, +112.890106, +160.652084 
1488856183.780183, 1488856183.780183, -1.156982, +0.058716, -0.169067, -67.165260, +110.097748, +175.926132 
1488856183.784034, 1488856183.784034, -1.286743, -0.016113, -0.236328, -67.165260, +110.097748, +175.926132 
1488856183.787788, 1488856183.787788, -1.286743, -0.016113, -0.236328, -67.165260, +110.097748, +175.926132 
1488856183.791541, 1488856183.791541, -1.286743, -0.016113, -0.236328, -73.070412, +113.988739, +188.011093 
1488856183.795484, 1488856183.795484, -1.286743, -0.016113, -0.236328, -73.070412, +113.988739, +188.011093 
1488856183.799438, 1488856183.799438, -1.286743, -0.016113, -0.236328, -73.070412, +113.988739, +188.011093 
1488856183.803394, 1488856183.803394, -1.349243, -0.189575, -0.330444, -70.445900, +119.436127, +195.823593 
1488856183.807336, 1488856183.807336, -1.356323, -0.189575, -0.330444, -70.445900, +119.436127, +195.823593 
1488856183.811288, 1488856183.811288, -1.356323, -0.189575, -0.330444, -70.445900, +119.436127, +199.836655 
1488856183.815166, 1488856183.815166, -1.356323, -0.189575, -0.330444, -61.412697, +119.970184, +199.836655 
1488856183.818922, 1488856183.818922, -1.356323, -0.189575, -0.330444, -61.412697, +119.970184, +199.836655 
1488856183.822779, 1488856183.822779, -1.356323, -0.189575, -0.330078, -53.737526, +119.024139, +200.340195 
1488856183.826574, 1488856183.826574, -1.453857, -0.202148, -0.330078, -53.737526, +119.024139, +200.340195 
1488856183.830321, 1488856183.830321, -1.453857, -0.202148, -0.330078, -53.737526, +119.024139, +200.340195 
1488856183.834226, 1488856183.834226, -1.453857, -0.202148, -0.330078, -49.938087, +120.931488, +199.745102 
1488856183.837983, 1488856183.837983, -1.453857, -0.202148, -0.330078, -49.938087, +120.931488, +199.745102 
1488856183.841723, 1488856183.841723, -1.453857, -0.202148, -0.330078, -49.938087, +120.931488, +199.745102 
1488856183.845649, 1488856183.845649, -1.593628, -0.176147, -0.312012, -49.236183, +123.586517, +199.714584 
1488856183.849806, 1488856183.849806, -1.593628, -0.176147, -0.312012, -49.236183, +123.586517, +199.714584 
1488856183.853992, 1488856183.853992, -1.593628, -0.176147, -0.312012, -49.236183, +123.586517, +199.714584 
1488856183.857943, 1488856183.857943, -1.593628, -0.176147, -0.312012, -50.594215, +124.669891, +198.539658 
1488856183.861891, 1488856183.861891, -1.593628, -0.176147, -0.312012, -50.594215, +124.669891, +198.539658 
1488856183.865702, 1488856183.865702, -1.649048, -0.048096, -0.320068, -50.594215, +124.669891, +196.067734 
1488856183.869443, 1488856183.869443, -1.649048, -0.048096, -0.320068, -53.981667, +124.624115, +196.067734 
1488856183.873265, 1488856183.873265, -1.649048, -0.048096, -0.320068, -53.981667, +124.624115, +196.067734 
1488856183.877212, 1488856183.877212, -1.649048, -0.048096, -0.320068, -60.451393, +123.784882, +192.649765 
1488856183.881160, 1488856183.881160, -1.649048, -0.048096, -0.320068, -60.451393, +123.784882, +192.649765 
1488856183.885018, 1488856183.885018, -1.675171, +0.040771, -0.356812, -60.451393, +123.784882, +192.649765 
1488856183.888768, 1488856183.888768, -1.675171, +0.040771, -0.356812, -68.508034, +123.800140, +188.270493 
1488856183.892527, 1488856183.892527, -1.675171, +0.040771, -0.356812, -68.508034, +123.800140, +188.270493 
1488856183.896328, 1488856183.896328, -1.675171, +0.040771, -0.356812, -68.508034, +123.800140, +188.270493 
1488856183.900085, 1488856183.900085, -1.675171, +0.040771, -0.356812, -76.778297, +124.059540, +183.250351 
1488856183.903986, 1488856183.903986, -1.694458, -0.059570, -0.379395, -76.778297, +124.059540, +183.250351 
1488856183.907746, 1488856183.907746, -1.694458, -0.059570, -0.379395, -76.778297, +124.059540, +183.250351 
1488856183.911493, 1488856183.911493, -1.694458, -0.059570, -0.379395, -82.271461, +124.532562, +176.978989 
1488856183.915463, 1488856183.915463, -1.694458, -0.059570, -0.379395, -82.271461, +124.532562, +176.978989 
1488856183.919378, 1488856183.919378, -1.694458, -0.059570, -0.379395, -82.271461, +124.532562, +176.978989 
1488856183.923297, 1488856183.923297, -1.876221, -0.193359, -0.281860, -82.866554, +123.296600, +170.371933 
1488856183.927215, 1488856183.927215, -1.876221, -0.193359, -0.281860, -82.866554, +123.296600, +170.371933 
1488856183.931132, 1488856183.931132, -1.876221, -0.193359, -0.281860, -82.866554, +115.484100, +158.729477 
1488856183.935100, 1488856183.935100, -1.876221, -0.193359, -0.281860, -82.271461, +114.690643, +158.729477 
1488856183.939018, 1488856183.939018, -1.876221, -0.193359, -0.281860, -82.271461, +114.690643, +158.729477 
1488856183.942942, 1488856183.942942, -1.934937, -0.461304, -0.029053, -82.286720, +100.927216, +143.989487 
1488856183.946915, 1488856183.946915, -1.934937, -0.461304, -0.029053, -82.286720, +100.927216, +143.989487 
1488856183.950837, 1488856183.950837, -1.934937, -0.461304, -0.029053, -82.286720, +100.927216, +143.989487 
1488856183.954777, 1488856183.954777, -1.934937, -0.461304, -0.029053, -75.847511, +84.752899, +130.836411 
1488856183.958697, 1488856183.958697, -1.934937, -0.461304, -0.029053, -75.847511, +84.752899, +130.836411 
1488856183.962621, 1488856183.962621, -1.627808, -0.665649, -0.113525, -75.847511, +84.752899, +130.836411 
1488856183.966682, 1488856183.966682, -1.627808, -0.665649, -0.113525, -61.260109, +71.813446, +115.974350 
1488856183.970835, 1488856183.970835, -1.627808, -0.665649, -0.113525, -61.260109, +71.813446, +115.974350 
1488856183.975099, 1488856183.975099, -1.627808, -0.665649, -0.113525, -45.635109, +61.467991, +92.948837 
1488856183.979043, 1488856183.979043, -1.627808, -0.665649, -0.113525, -46.138649, +61.467991, +92.948837 
1488856183.982994, 1488856183.982994, -1.508423, -0.802368, +0.036377, -46.138649, +61.467991, +92.948837 
1488856183.986937, 1488856183.986937, -1.508423, -0.802368, +0.036377, -28.377419, +53.182468, +64.277573 
1488856183.990885, 1488856183.990885, -1.508423, -0.802368, +0.036377, -28.377419, +53.182468, +64.277573 
1488856183.994879, 1488856183.994879, -1.508423, -0.802368, +0.036377, -28.377419, +53.182468, +64.277573 
1488856183.998826, 1488856183.998826, -1.508423, -0.802368, +0.036377, -24.455910, +36.184177, +33.286972 
1488856184.002773, 1488856184.002773, -1.525269, -0.787109, +0.184448, -24.455910, +36.184177, +33.286972 
1488856184.006544, 1488856184.006544, -1.525269, -0.787109, +0.184448, -24.455910, +36.184177, +33.286972 
1488856184.010295, 1488856184.010295, -1.525269, -0.787109, +0.184448, -27.751808, +13.891087, +0.404282 
1488856184.014098, 1488856184.014098, -1.525269, -0.787109, +0.184448, -27.751808, +13.891087, +0.404282 
1488856184.017852, 1488856184.017852, -1.525269, -0.787109, +0.184448, -27.751808, +13.891087, -34.751968 
1488856184.021600, 1488856184.021600, -1.525269, -0.777832, +0.165283, -28.224831, -4.129543, -33.119278 
1488856184.025514, 1488856184.025514, -1.497314, -0.777832, +0.165283, -28.224831, -4.129543, -33.119278 
1488856184.029263, 1488856184.029263, -1.497314, -0.777832, +0.165283, -28.224831, -19.754543, -64.689713 
1488856184.033117, 1488856184.033117, -1.497314, -0.777832, +0.165283, -29.994850, -19.724026, -64.689713 
1488856184.037063, 1488856184.037063, -1.497314, -0.777832, +0.165283, -29.994850, -19.724026, -64.689713 
1488856184.041006, 1488856184.041006, -1.497314, -0.777832, +0.154663, -34.755592, -32.159939, -92.704849 
1488856184.044963, 1488856184.044963, -1.526367, -0.657349, +0.154663, -34.755592, -32.159939, -92.704849 
1488856184.048908, 1488856184.048908, -1.526367, -0.657349, +0.154663, -34.755592, -32.159939, -92.704849 
1488856184.052854, 1488856184.052854, -1.526367, -0.657349, +0.154663, -41.438942, -42.764797, -116.996841 
1488856184.056622, 1488856184.056622, -1.526367, -0.657349, +0.154663, -41.438942, -42.764797, -116.996841 
1488856184.060370, 1488856184.060370, -1.526367, -0.657349, +0.154663, -41.438942, -42.764797, -116.996841 
1488856184.064186, 1488856184.064186, -1.250244, +0.100830, -0.408203, -47.939186, -47.388210, -134.636002 
1488856184.068131, 1488856184.068131, -1.250244, +0.100830, -0.408203, -47.939186, -47.388210, -134.636002 
1488856184.072082, 1488856184.072082, -1.250244, +0.100830, -0.408203, -47.939186, -47.388210, -134.636002 
1488856184.076036, 1488856184.076036, -1.250244, +0.100830, -0.408203, -76.732521, -37.912502, -131.599503 
1488856184.079978, 1488856184.079978, -1.250244, +0.100830, -0.408203, -76.732521, -37.912502, -131.599503 
1488856184.083935, 1488856184.083935, -0.395020, +2.686646, -1.213135, -84.545021, -21.906033, -86.906509 
1488856184.087883, 1488856184.087883, -0.395020, +2.686646, -1.213135, -84.209328, -21.906033, -86.906509 
1488856184.092055, 1488856184.092055, -0.395020, +2.686646, -1.213135, -84.209328, -21.906033, -86.906509 
1488856184.096401, 1488856184.096401, -0.395020, +2.686646, -1.213135, -11.089211, -3.458157, -37.727432 
1488856184.100351, 1488856184.100351, -0.395020, +2.686646, +0.255615, -11.089211, -3.458157, -37.727432 
1488856184.104249, 1488856184.104249, -1.583618, -0.010742, +0.269775, -11.089211, -3.458157, -37.727432 
1488856184.108000, 1488856184.108000, -1.583618, -0.010742, +0.269775, +21.793480, -0.986233, -38.185196 
1488856184.111745, 1488856184.111745, -1.583618, -0.010742, +0.269775, +21.793480, -0.986233, -38.185196 
1488856184.115637, 1488856184.115637, -1.583618, -0.010742, +0.269775, +21.793480, -0.986233, -38.185196 
1488856184.119690, 1488856184.119690, -1.583618, -0.010742, +0.269775, -20.961647, -22.653713, -75.843887 
1488856184.123651, 1488856184.123651, -1.817749, -0.378052, +0.017822, -20.961647, -22.653713, -75.843887 
1488856184.127404, 1488856184.127404, -1.817749, -0.378052, +0.017822, -20.961647, -26.559963, -98.503189 
1488856184.131152, 1488856184.131152, -1.817749, -0.378052, +0.017822, -52.471046, -25.583401, -98.503189 
1488856184.134914, 1488856184.134914, -1.817749, -0.378052, +0.017822, -52.471046, -25.583401, -98.503189 
1488856184.138665, 1488856184.138665, -1.817749, -0.378052, +0.017822, -55.965309, -8.279934, -100.105362 
1488856184.142417, 1488856184.142417, -1.433350, +0.200195, -0.788696, -55.965309, -8.279934, -100.105362 
1488856184.146300, 1488856184.146300, -1.433350, +0.200195, -0.788696, -55.965309, -8.279934, -100.105362 
1488856184.150050, 1488856184.150050, -1.433350, +0.200195, -0.788696, -46.413307, +1.302586, -102.958755 
1488856184.153956, 1488856184.153956, -1.433350, +0.200195, -0.788696, -46.413307, +1.302586, -102.958755 
1488856184.157826, 1488856184.157826, -1.433350, +0.200195, -0.788696, -46.413307, +1.302586, -102.958755 
1488856184.161574, 1488856184.161574, -1.393188, -0.167603, -0.154297, -35.411720, -6.204739, -108.787613 
1488856184.165594, 1488856184.165594, -1.393188, -0.167603, -0.154297, -35.411720, -6.204739, -108.787613 
1488856184.170360, 1488856184.170360, -1.393188, -0.167603, -0.154297, -35.411720, -6.204739, -108.787613 
1488856184.174265, 1488856184.174265, -1.393188, -0.167603, -0.154297, -25.218849, -17.038479, -109.581070 
1488856184.178009, 1488856184.178009, -1.393188, -0.167603, -0.154297, -25.218849, -17.038479, -109.581070 
1488856184.181747, 1488856184.181747, -1.178345, -0.341675, -0.553223, -25.218849, -24.850979, -100.318985 
1488856184.185500, 1488856184.185500, -1.178345, -0.341675, -0.553223, +1.453514, -24.866238, -100.318985 
1488856184.189236, 1488856184.189236, -1.178345, -0.341675, -0.553223, +1.453514, -24.866238, -100.318985 
1488856184.193006, 1488856184.193006, -1.178345, -0.341675, -0.553223, +44.422264, -27.185574, -83.778458 
1488856184.196753, 1488856184.196753, -1.178345, -0.341675, -0.553223, +43.689842, -27.185574, -83.778458 
1488856184.200494, 1488856184.200494, -0.928345, +0.080933, -0.583496, +43.689842, -27.185574, -83.778458 
1488856184.204282, 1488856184.204282, -0.919189, +0.080933, -0.583496, +70.331688, -25.644436, -69.358902 
1488856184.208028, 1488856184.208028, -0.919189, +0.080933, -0.583496, +70.331688, -25.644436, -69.358902 
1488856184.211770, 1488856184.211770, -0.919189, +0.080933, -0.583496, +70.331688, -25.644436, -69.358902 
1488856184.215700, 1488856184.215700, -0.919189, +0.080933, -0.583496, +65.525169, -26.926174, -65.910416 
1488856184.219445, 1488856184.219445, -0.919189, +0.080933, -0.364746, +65.525169, -26.926174, -65.910416 
1488856184.223353, 1488856184.223353, -0.980835, +0.205200, -0.361206, +65.525169, -26.926174, -65.910416 
1488856184.227100, 1488856184.227100, -0.980835, +0.205200, -0.361206, +45.292015, -29.596462, -69.877701 
1488856184.230850, 1488856184.230850, -0.980835, +0.205200, -0.361206, +45.292015, -29.596462, -69.877701 
1488856184.234636, 1488856184.234636, -0.980835, +0.205200, -0.361206, +45.292015, -29.596462, -69.877701 
1488856184.238382, 1488856184.238382, -0.980835, +0.205200, -0.361206, +19.855614, -27.704372, -71.510391 
1488856184.242126, 1488856184.242126, -1.080200, +0.169922, -0.392334, +19.855614, -27.704372, -71.510391 
1488856184.245879, 1488856184.245879, -1.080200, +0.169922, -0.392334, +19.855614, -27.704372, -71.510391 
1488856184.249635, 1488856184.249635, -1.080200, +0.169922, -0.392334, +4.703636, -24.408474, -69.023209 
1488856184.253405, 1488856184.253405, -1.080200, +0.169922, -0.392334, +4.703636, -24.408474, -69.023209 
1488856184.257348, 1488856184.257348, -1.080200, +0.169922, -0.392334, +4.703636, -24.408474, -65.116959 
1488856184.261301, 1488856184.261301, -1.182495, -0.116699, -0.409302, +4.551048, -24.728909, -63.911514 
1488856184.265406, 1488856184.265406, -1.182495, -0.116699, -0.409302, +4.551048, -24.728909, -63.911514 
1488856184.269358, 1488856184.269358, -1.182495, -0.116699, -0.409302, +10.578270, -25.156155, -57.746964 
1488856184.273318, 1488856184.273318, -1.182495, -0.116699, -0.409302, +10.578270, -25.156155, -57.746964 
1488856184.277270, 1488856184.277270, -1.182495, -0.116699, -0.409302, +10.578270, -25.156155, -57.746964 
1488856184.281411, 1488856184.281411, -1.138672, -0.049805, -0.303833, +15.445824, -23.508205, -50.422745 
1488856184.285489, 1488856184.285489, -1.138672, -0.049805, -0.303833, +15.445824, -23.508205, -50.422745 
1488856184.289438, 1488856184.289438, -1.138672, -0.049805, -0.303833, +15.445824, -23.508205, -50.422745 
1488856184.293381, 1488856184.293381, -1.138672, -0.049805, -0.303833, +21.457787, -22.333279, -43.632584 
1488856184.297130, 1488856184.297130, -1.138672, -0.049805, -0.303833, +21.457787, -22.333279, -43.632584 
1488856184.300878, 1488856184.300878, -1.111206, +0.038818, -0.321777, +21.457787, -22.333279, -43.632584 
1488856184.304733, 1488856184.304733, -1.111206, +0.038818, -0.321777, +27.408714, -21.143093, -38.887100 
1488856184.308683, 1488856184.308683, -1.111206, +0.038818, -0.321777, +27.408714, -21.143093, -38.887100 
1488856184.312624, 1488856184.312624, -1.111206, +0.038818, -0.321777, +27.408714, -19.983425, -35.682755 
1488856184.316407, 1488856184.316407, -1.111206, +0.038818, -0.321777, +27.057762, -19.983425, -35.682755 
1488856184.320157, 1488856184.320157, -1.076294, +0.050293, -0.378296, +27.057762, -19.983425, -35.682755 
1488856184.323918, 1488856184.323918, -1.076294, +0.050293, -0.378296, +24.173851, -19.693508, -33.638077 
1488856184.327672, 1488856184.327672, -1.076294, +0.050293, -0.378296, +24.173851, -19.693508, -33.638077 
1488856184.331426, 1488856184.331426, -1.076294, +0.050293, -0.378296, +24.173851, -19.693508, -33.638077 
1488856184.335331, 1488856184.335331, -1.076294, +0.050293, -0.378296, +26.844139, -20.181789, -31.959610 
1488856184.339087, 1488856184.339087, -1.076294, -0.086304, -0.355225, +26.844139, -20.181789, -31.959610 
1488856184.342838, 1488856184.342838, -1.069824, -0.086304, -0.355225, +26.844139, -20.181789, -31.959610 
1488856184.346688, 1488856184.346688, -1.069824, -0.086304, -0.355225, +30.277367, -19.815578, -28.816299 
1488856184.350439, 1488856184.350439, -1.069824, -0.086304, -0.355225, +30.277367, -19.815578, -28.816299 
1488856184.354298, 1488856184.354298, -1.069824, -0.086304, -0.355225, +30.277367, -19.815578, -28.816299 
1488856184.358240, 1488856184.358240, -1.069824, -0.086304, -0.386475, +35.785789, -19.601955, -25.291519 
1488856184.362196, 1488856184.362196, -1.012207, -0.019409, -0.403687, +35.785789, -19.601955, -25.291519 
1488856184.366272, 1488856184.366272, -1.012207, -0.019409, -0.403687, +35.785789, -19.601955, -25.291519 
1488856184.370019, 1488856184.370019, -1.012207, -0.019409, -0.403687, +40.119286, -18.808498, -22.392349 
1488856184.373837, 1488856184.373837, -1.012207, -0.019409, -0.403687, +40.119286, -18.808498, -22.392349 
1488856184.377731, 1488856184.377731, -1.012207, -0.019409, -0.403687, +40.119286, -19.312038, -22.728043 
1488856184.381875, 1488856184.381875, -1.065063, +0.042847, -0.282959, +38.593407, -19.312038, -22.728043 
1488856184.385654, 1488856184.385654, -1.065063, +0.042847, -0.282959, +38.593407, -19.312038, -22.728043 
1488856184.389396, 1488856184.389396, -1.065063, +0.042847, -0.282959, +33.634300, -20.273342, -24.055557 
1488856184.393200, 1488856184.393200, -1.065063, +0.042847, -0.282959, +33.634300, -20.273342, -24.055557 
1488856184.396939, 1488856184.396939, -1.065063, +0.042847, -0.282959, +33.634300, -20.273342, -24.055557 
1488856184.400691, 1488856184.400691, -1.045166, +0.098145, -0.373901, +26.188011, -21.249905, -25.505142 
1488856184.404469, 1488856184.404469, -1.045166, +0.098145, -0.373901, +26.188011, -21.249905, -25.505142 
1488856184.408217, 1488856184.408217, -1.045166, +0.098145, -0.373901, +26.188011, -21.249905, -25.505142 
1488856184.412064, 1488856184.412064, -1.045166, +0.098145, -0.373901, +19.260521, -21.417751, -27.168350 
1488856184.415971, 1488856184.415971, -1.045166, +0.098145, -0.373901, +19.260521, -21.417751, -27.168350 
1488856184.419718, 1488856184.419718, -1.124023, -0.062256, -0.299316, +19.260521, -21.417751, -27.168350 
1488856184.423642, 1488856184.423642, -1.124023, -0.062256, -0.299316, +16.346092, -21.051540, -28.541641 
1488856184.427393, 1488856184.427393, -1.124023, -0.062256, -0.299316, +16.346092, -21.051540, -28.541641 
1488856184.431143, 1488856184.431143, -1.124023, -0.062256, -0.299316, +16.346092, -21.051540, -28.541641 
1488856184.435077, 1488856184.435077, -1.124023, -0.062256, -0.299316, +15.613670, -21.005764, -27.977066 
1488856184.439026, 1488856184.439026, -1.036377, -0.077271, -0.308105, +15.613670, -21.005764, -27.977066 
1488856184.443009, 1488856184.443009, -1.036377, -0.077271, -0.308105, +15.613670, -21.005764, -25.947647 
1488856184.446763, 1488856184.446763, -1.036377, -0.077271, -0.308105, +16.758080, -21.097317, -25.947647 
1488856184.450508, 1488856184.450508, -1.036377, -0.077271, -0.308105, +16.758080, -21.097317, -25.947647 
1488856184.454342, 1488856184.454342, -1.036377, -0.077271, -0.308105, +20.664330, -20.197048, -24.620132 
1488856184.458290, 1488856184.458290, -1.036377, -0.064819, -0.280273, +18.329735, -20.197048, -24.620132 
1488856184.462236, 1488856184.462236, -1.040894, -0.064819, -0.280273, +18.329735, -20.197048, -24.620132 
1488856184.466196, 1488856184.466196, -1.040894, -0.064819, -0.280273, +17.765160, -19.662991, -23.979263 
1488856184.470141, 1488856184.470141, -1.040894, -0.064819, -0.280273, +17.765160, -19.662991, -23.979263 
1488856184.474157, 1488856184.474157, -1.040894, -0.064819, -0.280273, +17.765160, -19.662991, -23.979263 
1488856184.478099, 1488856184.478099, -1.040894, -0.093750, -0.275146, +14.896507, -19.113674, -23.918228 
1488856184.482052, 1488856184.482052, -1.048462, -0.093750, -0.275146, +14.896507, -19.113674, -23.918228 
1488856184.486011, 1488856184.486011, -1.048462, -0.093750, -0.275146, +14.896507, -19.113674, -20.011978 
1488856184.490059, 1488856184.490059, -1.048462, -0.093750, -0.275146, +12.592430, -18.854275, -23.201065 
1488856184.494395, 1488856184.494395, -1.048462, -0.093750, -0.275146, +12.592430, -18.854275, -23.201065 
1488856184.498141, 1488856184.498141, -1.048462, -0.145508, -0.300537, +13.218040, -17.801418, -22.377090 
1488856184.501899, 1488856184.501899, -1.050293, -0.145508, -0.300537, +13.218040, -17.801418, -22.377090 
1488856184.505801, 1488856184.505801, -1.050293, -0.145508, -0.300537, +13.218040, -17.801418, -22.377090 
1488856184.509759, 1488856184.509759, -1.050293, -0.145508, -0.300537, +14.820213, -17.450466, -20.668106 
1488856184.513741, 1488856184.513741, -1.050293, -0.145508, -0.300537, +14.820213, -17.450466, -20.668106 
1488856184.517697, 1488856184.517697, -1.050293, -0.067627, -0.298706, +14.820213, -17.450466, -20.668106 
1488856184.521648, 1488856184.521648, -1.082764, -0.067627, -0.298706, +15.705223, -16.687527, -19.828873 
1488856184.525482, 1488856184.525482, -1.082764, -0.067627, -0.298706, +15.705223, -16.687527, -19.828873 
1488856184.529233, 1488856184.529233, -1.082764, -0.067627, -0.298706, +15.705223, -16.687527, -19.828873 
1488856184.533023, 1488856184.533023, -1.082764, -0.067627, -0.298706, +13.614769, -15.695705, -19.508438 
1488856184.536780, 1488856184.536780, -1.082764, -0.067627, -0.298706, +13.614769, -15.695705, -19.508438 
1488856184.540526, 1488856184.540526, -1.101440, -0.130493, -0.267822, +13.614769, -15.695705, -19.508438 
1488856184.544372, 1488856184.544372, -1.101440, -0.130493, -0.267822, +13.248558, -15.756741, -19.599991 
1488856184.548140, 1488856184.548140, -1.101440, -0.130493, -0.267822, +13.248558, -15.756741, -19.599991 
1488856184.552184, 1488856184.552184, -1.101440, -0.130493, -0.267822, +17.154808, -16.107693, -19.386368 
1488856184.556301, 1488856184.556301, -1.101440, -0.130493, -0.267822, +14.179344, -16.107693, -19.386368 
1488856184.560248, 1488856184.560248, -1.084961, -0.105713, -0.336304, +14.179344, -16.107693, -19.386368 
1488856184.564317, 1488856184.564317, -1.084961, -0.105713, -0.336304, +15.583153, -16.657009, -18.837051 
1488856184.568273, 1488856184.568273, -1.084961, -0.105713, -0.336304, +15.583153, -16.657009, -18.837051 
1488856184.572217, 1488856184.572217, -1.084961, -0.105713, -0.336304, +15.583153, -16.657009, -18.837051 
1488856184.576177, 1488856184.576177, -1.084961, -0.105713, -0.336304, +16.834373, -17.496243, -19.157486 
1488856184.580119, 1488856184.580119, -1.135864, -0.088745, -0.349243, +16.834373, -17.496243, -19.157486 
1488856184.584036, 1488856184.584036, -1.135864, -0.088745, -0.349243, +16.834373, -17.496243, -19.157486 
1488856184.587787, 1488856184.587787, -1.135864, -0.088745, -0.349243, +18.650169, -19.006863, -20.698624 
1488856184.591542, 1488856184.591542, -1.135864, -0.088745, -0.349243, +18.650169, -19.006863, -20.698624 
1488856184.595379, 1488856184.595379, -1.135864, -0.088745, -0.349243, +18.650169, -19.006863, -21.614151 
1488856184.599130, 1488856184.599130, -1.095825, -0.071655, -0.353638, +18.955345, -20.731106, -21.614151 
1488856184.602888, 1488856184.602888, -1.095825, -0.071655, -0.353638, +18.955345, -20.731106, -21.614151 
1488856184.606864, 1488856184.606864, -1.095825, -0.071655, -0.353638, +20.099754, -22.333279, -23.231583 
1488856184.610857, 1488856184.610857, -1.095825, -0.071655, -0.353638, +20.099754, -22.333279, -23.231583 
1488856184.614933, 1488856184.614933, -1.095825, -0.071655, -0.353638, +20.099754, -22.333279, -23.231583 
1488856184.618882, 1488856184.618882, -1.155884, -0.044067, -0.392944, +21.778221, -24.393215, -26.115494 
1488856184.622831, 1488856184.622831, -1.155884, -0.044067, -0.392944, +21.778221, -24.393215, -26.115494 
1488856184.626783, 1488856184.626783, -1.155884, -0.044067, -0.392944, +21.778221, -24.393215, -26.115494 
1488856184.630734, 1488856184.630734, -1.155884, -0.044067, -0.392944, +22.739525, -26.498928, -27.168350 
1488856184.634693, 1488856184.634693, -1.155884, -0.044067, -0.392944, +22.739525, -26.498928, -27.168350 
1488856184.638644, 1488856184.638644, -1.159790, -0.117920, -0.374878, +22.739525, -26.498928, -28.266983 
1488856184.642586, 1488856184.642586, -1.159790, -0.117920, -0.374878, +23.243065, -28.131618, -28.266983 
1488856184.646367, 1488856184.646367, -1.159790, -0.117920, -0.374878, +23.243065, -28.131618, -28.266983 
1488856184.650117, 1488856184.650117, -1.159790, -0.117920, -0.374878, +23.243065, -32.037868, -29.884415 
1488856184.653890, 1488856184.653890, -1.159790, -0.117920, -0.374878, +25.699730, -30.389919, -29.884415 
1488856184.657644, 1488856184.657644, -1.161499, -0.106812, -0.357544, +25.699730, -30.389919, -29.884415 
1488856184.661392, 1488856184.661392, -1.161499, -0.106812, -0.357544, +29.331322, -33.548489, -31.715469 
1488856184.665322, 1488856184.665322, -1.161499, -0.106812, -0.357544, +29.331322, -33.548489, -31.715469 
1488856184.669069, 1488856184.669069, -1.161499, -0.106812, -0.357544, +29.331322, -33.548489, -31.715469 
1488856184.672826, 1488856184.672826, -1.161499, -0.106812, -0.357544, +31.299706, -36.447659, -33.332901 
1488856184.676844, 1488856184.676844, -1.130249, -0.066406, -0.425415, +31.299706, -36.447659, -33.332901 
1488856184.680796, 1488856184.680796, -1.145142, -0.066406, -0.425415, +31.299706, -36.447659, -33.332901 
1488856184.684757, 1488856184.684757, -1.145142, -0.066406, -0.425415, +29.865379, -37.561550, -35.835342 
1488856184.688701, 1488856184.688701, -1.145142, -0.066406, -0.425415, +29.865379, -37.561550, -35.835342 
1488856184.692651, 1488856184.692651, -1.145142, -0.066406, -0.425415, +29.865379, -37.561550, -35.835342 
1488856184.696426, 1488856184.696426, -1.145142, -0.089233, -0.393311, +29.300804, -39.819851, -38.765030 
1488856184.700179, 1488856184.700179, -1.200928, -0.089233, -0.393311, +29.300804, -39.819851, -38.765030 
1488856184.703977, 1488856184.703977, -1.200928, -0.089233, -0.393311, +29.300804, -39.819851, -40.504532 
1488856184.707935, 1488856184.707935, -1.200928, -0.089233, -0.393311, +31.177635, -42.123928, -40.504532 
1488856184.711998, 1488856184.711998, -1.200928, -0.089233, -0.393311, +31.177635, -42.123928, -40.504532 
1488856184.715956, 1488856184.715956, -1.200928, -0.151733, -0.331543, +33.802147, -44.061794, -41.786270 
1488856184.719903, 1488856184.719903, -1.239624, -0.140137, -0.331543, +33.802147, -44.061794, -41.786270 
1488856184.723894, 1488856184.723894, -1.239624, -0.140137, -0.331543, +33.802147, -44.061794, -41.786270 
1488856184.727849, 1488856184.727849, -1.239624, -0.140137, -0.331543, +36.625023, -45.877590, -42.991714 
1488856184.731885, 1488856184.731885, -1.239624, -0.140137, -0.331543, +36.625023, -45.877590, -42.991714 
1488856184.736128, 1488856184.736128, -1.239624, -0.072510, -0.296143, +36.625023, -45.877590, -42.991714 
1488856184.740076, 1488856184.740076, -1.263184, -0.072510, -0.296143, +39.814110, -47.708645, -44.731216 
1488856184.743976, 1488856184.743976, -1.263184, -0.072510, -0.296143, +39.814110, -47.708645, -44.731216 
1488856184.747727, 1488856184.747727, -1.263184, -0.072510, -0.296143, +39.814110, -47.708645, -46.760635 
1488856184.751479, 1488856184.751479, -1.263184, -0.072510, -0.296143, +39.280052, -50.073757, -46.760635 
1488856184.755360, 1488856184.755360, -1.263184, -0.072510, -0.220093, +39.280052, -50.073757, -46.760635 
1488856184.759299, 1488856184.759299, -1.262817, -0.078369, -0.220093, +37.159081, -52.896633, -49.461441 
1488856184.763287, 1488856184.763287, -1.262817, -0.078369, -0.220093, +37.159081, -52.896633, -49.461441 
1488856184.767035, 1488856184.767035, -1.262817, -0.078369, -0.220093, +37.159081, -52.896633, -49.461441 
1488856184.770782, 1488856184.770782, -1.262817, -0.078369, -0.220093, +35.511131, -56.070461, -53.642349 
1488856184.774541, 1488856184.774541, -1.262817, -0.078369, -0.220093, +35.511131, -56.070461, -53.642349 
1488856184.778294, 1488856184.778294, -1.282104, -0.016602, -0.218506, +35.511131, -56.070461, -53.642349 
1488856184.782043, 1488856184.782043, -1.282104, -0.016602, -0.218506, +33.603783, -59.366360, -57.396011 
1488856184.785908, 1488856184.785908, -1.282104, -0.016602, -0.218506, +33.603783, -59.366360, -57.396011 
1488856184.789656, 1488856184.789656, -1.282104, -0.016602, -0.218506, +33.603783, -59.366360, -57.396011 
1488856184.793561, 1488856184.793561, -1.282104, -0.016602, -0.218506, +33.496971, -63.089504, -60.981827 
1488856184.797316, 1488856184.797316, -1.303955, +0.062134, -0.267822, +33.496971, -63.089504, -60.981827 
1488856184.801074, 1488856184.801074, -1.303955, +0.062134, -0.267822, +33.496971, -63.089504, -60.981827 
1488856184.804935, 1488856184.804935, -1.303955, +0.062134, -0.267822, +31.314964, -65.744537, -64.537125 
1488856184.808876, 1488856184.808876, -1.303955, +0.062134, -0.267822, +31.314964, -65.744537, -64.537125 
1488856184.812820, 1488856184.812820, -1.303955, +0.062134, -0.267822, +31.314964, -65.744537, -72.349625 
1488856184.816781, 1488856184.816781, -1.396851, +0.079102, -0.391724, +26.462669, -69.772858, -70.900040 
1488856184.820728, 1488856184.820728, -1.396851, +0.079102, -0.391724, +26.462669, -69.772858, -70.900040 
1488856184.824686, 1488856184.824686, -1.396851, +0.079102, -0.391724, +24.341698, -73.465485, -77.705460 
1488856184.828635, 1488856184.828635, -1.396851, +0.079102, -0.391724, +24.341698, -73.465485, -77.705460 
1488856184.832572, 1488856184.832572, -1.396851, +0.079102, -0.391724, +24.341698, -73.465485, -77.705460 
1488856184.836532, 1488856184.836532, -1.445801, +0.142822, -0.458862, +25.409813, -76.837677, -81.794815 
1488856184.840474, 1488856184.840474, -1.445801, +0.142822, -0.458862, +25.409813, -76.837677, -81.794815 
1488856184.844411, 1488856184.844411, -1.445801, +0.142822, -0.458862, +25.409813, -76.837677, -81.794815 
1488856184.848162, 1488856184.848162, -1.445801, +0.142822, -0.458862, +29.895897, -79.614777, -85.502701 
1488856184.852086, 1488856184.852086, -1.445801, +0.142822, -0.458862, +29.895897, -79.614777, -85.502701 
1488856184.856338, 1488856184.856338, -1.687988, +0.124390, -0.537842, +29.895897, -79.614777, -89.408951 
1488856184.860390, 1488856184.860390, -1.687988, +0.124390, -0.537842, +36.594505, -83.459991, -90.080338 
1488856184.864357, 1488856184.864357, -1.687988, +0.124390, -0.537842, +36.594505, -83.459991, -90.080338 
1488856184.868299, 1488856184.868299, -1.687988, +0.124390, -0.537842, +47.718163, -86.420197, -93.574600 
1488856184.872247, 1488856184.872247, -1.687988, +0.124390, -0.537842, +47.718163, -86.420197, -93.574600 
1488856184.876199, 1488856184.876199, -1.814087, +0.319214, -0.703003, +47.718163, -86.420197, -93.574600 
1488856184.880142, 1488856184.880142, -1.814087, +0.319214, -0.703003, +65.036888, -87.976593, -93.956070 
1488856184.884063, 1488856184.884063, -1.814087, +0.319214, -0.703003, +65.036888, -87.976593, -93.956070 
1488856184.887807, 1488856184.887807, -1.814087, +0.319214, -0.703003, +65.036888, -87.976593, -93.956070 
1488856184.891561, 1488856184.891561, -1.814087, +0.319214, -0.703003, +84.751244, -89.899200, -92.613297 
1488856184.895318, 1488856184.895318, -1.816162, +0.139160, -0.543335, +84.751244, -89.899200, -92.613297 
1488856184.899078, 1488856184.899078, -1.816162, +0.139160, -0.543335, +84.751244, -89.899200, -92.613297 
1488856184.902824, 1488856184.902824, -1.816162, +0.139160, -0.543335, +95.462914, -91.730255, -92.475967 
1488856184.906713, 1488856184.906713, -1.816162, +0.139160, -0.543335, +95.462914, -91.730255, -92.475967 
1488856184.910465, 1488856184.910465, -1.816162, +0.139160, -0.543335, +95.462914, -91.730255, -92.475967 
1488856184.914423, 1488856184.914423, -1.816162, +0.139160, -0.547485, +93.311424, -96.170563, -93.193130 
1488856184.918376, 1488856184.918376, -1.702515, +0.130249, -0.547485, +93.311424, -96.170563, -93.193130 
1488856184.922320, 1488856184.922320, -1.702515, +0.130249, -0.547485, +93.311424, -102.243561, -93.406754 
1488856184.926314, 1488856184.926314, -1.702515, +0.130249, -0.547485, +78.739281, -102.243561, -93.406754 
1488856184.930257, 1488856184.930257, -1.702515, +0.130249, -0.547485, +78.739281, -102.243561, -93.406754 
1488856184.934203, 1488856184.934203, -1.702515, +0.130249, -0.610962, +52.372093, -103.998322, -96.183853 
1488856184.938143, 1488856184.938143, -1.328491, +0.032349, -0.610962, +52.372093, -103.998322, -96.183853 
1488856184.942088, 1488856184.942088, -1.328491, +0.032349, -0.610962, +52.372093, -103.998322, -96.183853 
1488856184.945892, 1488856184.945892, -1.328491, +0.032349, -0.610962, +21.091576, -96.292633, -99.632339 
1488856184.949638, 1488856184.949638, -1.328491, +0.032349, -0.610962, +21.091576, -96.292633, -99.632339 
1488856184.953413, 1488856184.953413, -1.328491, +0.032349, -0.610962, +21.091576, -96.292633, -99.632339 
1488856184.957363, 1488856184.957363, -1.087891, -0.271118, -0.388184, -0.926857, -82.941193, -98.030167 
1488856184.961310, 1488856184.961310, -1.087891, -0.271118, -0.388184, -0.926857, -82.941193, -98.030167 
1488856184.965294, 1488856184.965294, -1.087891, -0.271118, -0.388184, -0.926857, -82.941193, -90.217667 
1488856184.969426, 1488856184.969426, -1.087891, -0.271118, -0.388184, -5.382423, -71.542877, -90.797501 
1488856184.973686, 1488856184.973686, -1.087891, -0.271118, -0.272217, -5.382423, -71.542877, -90.797501 
1488856184.977635, 1488856184.977635, -0.696655, -0.719849, -0.272217, +18.634911, -58.069363, -75.599747 
1488856184.981586, 1488856184.981586, -0.696655, -0.719849, -0.272217, +18.634911, -58.069363, -75.599747 
1488856184.985543, 1488856184.985543, -0.696655, -0.719849, -0.272217, +18.634911, -58.069363, -75.599747 
1488856184.989499, 1488856184.989499, -0.696655, -0.719849, -0.272217, +49.991722, -43.039455, -54.451065 
1488856184.993475, 1488856184.993475, -0.696655, -0.719849, -0.397217, +49.991722, -43.039455, -54.451065 
1488856184.997228, 1488856184.997228, -0.608887, -0.220337, -0.401001, +49.991722, -43.039455, -54.451065 
1488856185.000973, 1488856185.000973, -0.608887, -0.220337, -0.401001, +72.589989, -35.638943, -30.555801 
1488856185.004737, 1488856185.004737, -0.608887, -0.220337, -0.401001, +72.589989, -35.638943, -30.555801 
1488856185.008601, 1488856185.008601, -0.608887, -0.220337, -0.401001, +72.589989, -35.638943, -30.555801 
1488856185.012357, 1488856185.012357, -0.608887, -0.220337, -0.401001, +73.581810, -26.239529, -7.942276 
1488856185.016167, 1488856185.016167, -0.320312, +0.581543, -0.365601, +73.581810, -26.239529, -7.942276 
1488856185.019918, 1488856185.019918, -0.320312, +0.581543, -0.365601, +73.581810, -26.239529, +13.526840 
1488856185.023798, 1488856185.023798, -0.320312, +0.581543, -0.365601, +64.701195, -18.503323, +13.526840 
1488856185.027552, 1488856185.027552, -0.320312, +0.581543, -0.365601, +64.701195, -18.503323, +13.526840 
1488856185.031299, 1488856185.031299, -0.320312, +0.581543, -0.365601, +64.701195, -11.285915, +31.913681 
1488856185.035286, 1488856185.035286, -0.273071, +0.458618, +0.029053, +51.395531, -11.285915, +31.913681 
1488856185.039228, 1488856185.039228, -0.273071, +0.458618, +0.029053, +51.395531, -11.285915, +31.913681 
1488856185.043222, 1488856185.043222, -0.273071, +0.458618, +0.029053, +28.598900, -3.564968, +44.151230 
1488856185.046967, 1488856185.046967, -0.273071, +0.458618, +0.029053, +28.598900, -3.564968, +44.151230 
1488856185.050721, 1488856185.050721, -0.273071, +0.458618, +0.029053, +28.598900, -3.564968, +44.151230 
1488856185.054549, 1488856185.054549, -0.342163, +0.187988, -0.017334, +6.092186, +8.886204, +56.007309 
1488856185.058489, 1488856185.058489, -0.342163, +0.187988, -0.017334, +6.092186, +8.886204, +56.007309 
1488856185.062430, 1488856185.062430, -0.342163, +0.187988, -0.017334, +6.092186, +8.886204, +56.007309 
1488856185.066383, 1488856185.066383, -0.342163, +0.187988, -0.017334, -11.974220, +23.183689, +70.243759 
1488856185.070333, 1488856185.070333, -0.342163, +0.187988, -0.017334, -11.974220, +23.183689, +70.243759 
1488856185.074290, 1488856185.074290, -0.375244, +0.069946, -0.127563, -11.974220, +23.183689, +84.983749 
1488856185.078241, 1488856185.078241, -0.375244, +0.069946, -0.127563, -23.403053, +36.825047, +84.983749 
1488856185.082184, 1488856185.082184, -0.375244, +0.069946, -0.127563, -23.403053, +36.825047, +84.983749 
1488856185.086142, 1488856185.086142, -0.375244, +0.069946, -0.127563, -30.483131, +51.946507, +100.318832 
1488856185.090197, 1488856185.090197, -0.375244, +0.069946, -0.127563, -30.483131, +51.946507, +100.318832 
1488856185.094271, 1488856185.094271, -0.408447, +0.168945, -0.188354, -30.483131, +51.946507, +100.318832 
1488856185.098541, 1488856185.098541, -0.408447, +0.168945, -0.188354, -39.028053, +64.351898, +116.050644 
1488856185.102287, 1488856185.102287, -0.408447, +0.168945, -0.188354, -39.028053, +64.351898, +116.050644 
1488856185.106200, 1488856185.106200, -0.408447, +0.168945, -0.188354, -39.028053, +64.351898, +116.050644 
1488856185.109940, 1488856185.109940, -0.408447, +0.168945, -0.188354, -44.475441, +77.321869, +129.478378 
1488856185.113710, 1488856185.113710, -0.470215, +0.371460, -0.231079, -44.475441, +77.321869, +129.478378 
1488856185.117453, 1488856185.117453, -0.470215, +0.371460, -0.231079, -44.475441, +77.321869, +129.478378 
1488856185.121196, 1488856185.121196, -0.470215, +0.371460, -0.231079, -62.160378, +90.001923, +139.717026 
1488856185.124983, 1488856185.124983, -0.470215, +0.371460, -0.231079, -62.160378, +90.001923, +139.717026 
1488856185.128720, 1488856185.128720, -0.470215, +0.371460, -0.231079, -62.160378, +90.001923, +147.529526 
1488856185.132467, 1488856185.132467, -0.470215, +0.371460, -0.054321, -86.131935, +103.460175, +144.523544 
1488856185.136329, 1488856185.136329, -0.716797, +0.230591, -0.054321, -86.131935, +103.460175, +144.523544 
1488856185.140076, 1488856185.140076, -0.716797, +0.230591, -0.054321, -86.131935, +115.178925, +149.116440 
1488856185.143986, 1488856185.143986, -0.716797, +0.230591, -0.054321, -103.923683, +113.653046, +149.116440 
1488856185.147735, 1488856185.147735, -0.716797, +0.230591, -0.054321, -103.923683, +113.653046, +149.116440 
1488856185.151491, 1488856185.151491, -0.716797, +0.230591, -0.054321, -97.179298, +117.498260, +156.974716 
1488856185.155457, 1488856185.155457, -1.055176, -0.213745, -0.283813, -97.179298, +117.498260, +156.974716 
1488856185.159485, 1488856185.159485, -1.055176, -0.213745, -0.283813, -97.179298, +117.498260, +156.974716 
1488856185.163407, 1488856185.163407, -1.055176, -0.213745, -0.283813, -71.300392, +111.516815, +170.463486 
1488856185.167325, 1488856185.167325, -1.055176, -0.213745, -0.283813, -71.300392, +111.516815, +170.463486 
1488856185.171248, 1488856185.171248, -1.055176, -0.213745, -0.283813, -71.300392, +111.516815, +170.463486 
1488856185.175179, 1488856185.175179, -1.318237, +0.094116, -0.159058, -59.642677, +103.353363, +186.698837 
1488856185.179098, 1488856185.179098, -1.318237, +0.094116, -0.159058, -59.642677, +103.353363, +186.698837 
1488856185.183021, 1488856185.183021, -1.318237, +0.094116, -0.159058, -59.642677, +103.353363, +198.417587 
1488856185.186940, 1488856185.186940, -1.318237, +0.094116, -0.159058, -70.903664, +101.598602, +198.570175 
1488856185.190865, 1488856185.190865, -1.318237, +0.094116, -0.159058, -70.903664, +101.598602, +198.570175 
1488856185.194789, 1488856185.194789, -1.348755, -0.177368, -0.137207, -90.434914, +107.839447, +203.452988 
1488856185.198711, 1488856185.198711, -1.348755, -0.177368, -0.137207, -89.351540, +107.839447, +203.452988 
1488856185.202721, 1488856185.202721, -1.348755, -0.177368, -0.137207, -89.351540, +107.839447, +203.452988 
1488856185.206716, 1488856185.206716, -1.348755, -0.177368, -0.137207, -98.323708, +112.768036, +204.551620 
1488856185.210751, 1488856185.210751, -1.348755, -0.177368, -0.137207, -98.323708, +112.768036, +204.551620 
1488856185.215263, 1488856185.215263, -1.393921, -0.204956, -0.275146, -98.323708, +112.768036, +204.551620 
1488856185.219007, 1488856185.219007, -1.393921, -0.204956, -0.275146, -101.650124, +112.142426, +202.781601 
1488856185.222744, 1488856185.222744, -1.393921, -0.204956, -0.275146, -101.650124, +112.142426, +202.781601 
1488856185.226558, 1488856185.226558, -1.393921, -0.204956, -0.275146, -101.650124, +112.142426, +202.781601 
1488856185.230299, 1488856185.230299, -1.393921, -0.204956, -0.275146, -104.534035, +110.280853, +199.470444 
1488856185.234078, 1488856185.234078, -1.500488, -0.228271, -0.347290, -104.534035, +110.280853, +199.470444 
1488856185.237818, 1488856185.237818, -1.500488, -0.228271, -0.347290, -104.534035, +110.280853, +198.493881 
1488856185.241562, 1488856185.241562, -1.500488, -0.228271, -0.347290, -104.701881, +108.571869, +198.493881 
1488856185.245313, 1488856185.245313, -1.500488, -0.228271, -0.347290, -104.701881, +108.571869, +198.493881 
1488856185.249054, 1488856185.249054, -1.500488, -0.228271, -0.347290, -104.701881, +104.665619, +198.661728 
1488856185.252795, 1488856185.252795, -1.658813, -0.427002, -0.364746, -101.344948, +106.069427, +198.661728 
1488856185.256564, 1488856185.256564, -1.658813, -0.427002, -0.364746, -101.344948, +106.069427, +198.661728 
1488856185.260304, 1488856185.260304, -1.658813, -0.427002, -0.364746, -92.632179, +104.696136, +201.026840 
1488856185.264201, 1488856185.264201, -1.658813, -0.427002, -0.364746, -92.632179, +104.696136, +201.026840 
1488856185.267955, 1488856185.267955, -1.658813, -0.427002, -0.364746, -92.632179, +104.696136, +201.026840 
1488856185.271701, 1488856185.271701, -1.658813, -0.364502, -0.344360, -80.440407, +102.285248, +204.612656 
1488856185.275674, 1488856185.275674, -1.739746, -0.365356, -0.344360, -80.440407, +102.285248, +204.612656 
1488856185.279620, 1488856185.279620, -1.739746, -0.365356, -0.344360, -80.440407, +102.285248, +204.612656 
1488856185.283577, 1488856185.283577, -1.739746, -0.365356, -0.344360, -69.637184, +98.378998, +207.298203 
1488856185.287530, 1488856185.287530, -1.739746, -0.365356, -0.344360, -69.637184, +98.378998, +207.298203 
1488856185.291473, 1488856185.291473, -1.739746, -0.365356, -0.274414, -69.637184, +98.378998, +207.298203 
1488856185.295304, 1488856185.295304, -1.776367, -0.458496, -0.274414, -63.686256, +92.840057, +204.383774 
1488856185.299046, 1488856185.299046, -1.776367, -0.458496, -0.274414, -63.686256, +92.840057, +204.383774 
1488856185.302916, 1488856185.302916, -1.776367, -0.458496, -0.274414, -63.686256, +92.840057, +196.388168 
1488856185.306902, 1488856185.306902, -1.776367, -0.458496, -0.274414, -58.345680, +86.782318, +196.388168 
1488856185.310858, 1488856185.310858, -1.776367, -0.458496, -0.274414, -58.345680, +86.782318, +196.388168 
1488856185.314814, 1488856185.314814, -1.682983, -0.540894, -0.302979, -56.362038, +82.631927, +184.516830 
1488856185.318752, 1488856185.318752, -1.682983, -0.540894, -0.302979, -56.362038, +82.631927, +184.516830 
1488856185.322697, 1488856185.322697, -1.682983, -0.540894, -0.302979, -56.362038, +82.631927, +184.516830 
1488856185.326660, 1488856185.326660, -1.682983, -0.540894, -0.302979, -54.790382, +80.160004, +171.623154 
1488856185.330646, 1488856185.330646, -1.682983, -0.540894, -0.302979, -54.790382, +80.160004, +171.623154 
1488856185.334729, 1488856185.334729, -1.641968, -0.433960, -0.391479, -54.790382, +80.160004, +171.623154 
1488856185.338480, 1488856185.338480, -1.641968, -0.433960, -0.391479, -49.648170, +77.840668, +160.133286 
1488856185.342234, 1488856185.342234, -1.641968, -0.433960, -0.391479, -49.648170, +77.840668, +160.133286 
1488856185.346165, 1488856185.346165, -1.641968, -0.433960, -0.391479, -49.648170, +77.840668, +160.133286 
1488856185.350113, 1488856185.350113, -1.641968, -0.433960, -0.391479, -41.149025, +73.659760, +148.628159 
1488856185.354103, 1488856185.354103, -1.671509, -0.569458, -0.391357, -41.149025, +73.659760, +148.628159 
1488856185.358051, 1488856185.358051, -1.671509, -0.569458, -0.391357, -29.430275, +66.594940, +134.147568 
1488856185.361997, 1488856185.361997, -1.671509, -0.569458, -0.391357, -29.064064, +66.594940, +134.147568 
1488856185.365814, 1488856185.365814, -1.671509, -0.569458, -0.391357, -29.064064, +66.594940, +134.147568 
1488856185.369566, 1488856185.369566, -1.671509, -0.569458, -0.391357, -17.360573, +58.690891, +115.669174 
1488856185.373326, 1488856185.373326, -1.522095, -0.824463, -0.299561, -17.360573, +58.690891, +115.669174 
1488856185.377080, 1488856185.377080, -1.522095, -0.824463, -0.299561, -17.360573, +58.690891, +115.669174 
1488856185.380827, 1488856185.380827, -1.522095, -0.824463, -0.299561, -0.255470, +52.160130, +94.444199 
1488856185.384737, 1488856185.384737, -1.522095, -0.824463, -0.299561, -0.255470, +52.160130, +94.444199 
1488856185.388491, 1488856185.388491, -1.522095, -0.824463, -0.299561, -0.255470, +52.160130, +94.444199 
1488856185.392245, 1488856185.392245, -1.461426, -0.931519, -0.060059, +19.245262, +46.804295, +70.899887 
1488856185.396246, 1488856185.396246, -1.461426, -0.931519, -0.060059, +19.245262, +46.804295, +70.899887 
1488856185.400164, 1488856185.400164, -1.461426, -0.931519, -0.060059, +19.245262, +46.804295, +70.899887 
1488856185.404093, 1488856185.404093, -1.461426, -0.931519, -0.060059, +31.528587, +37.099705, +44.364853 
1488856185.408011, 1488856185.408011, -1.461426, -0.931519, -0.060059, +31.528587, +37.099705, +44.364853 
1488856185.411954, 1488856185.411954, -1.544067, -0.654419, +0.169678, +31.528587, +37.099705, +14.457626 
1488856185.415889, 1488856185.415889, -1.544067, -0.654419, +0.169678, +32.215233, +23.687229, +14.457626 
1488856185.419813, 1488856185.419813, -1.544067, -0.654419, +0.169678, +32.215233, +23.687229, +14.457626 
1488856185.423742, 1488856185.423742, -1.544067, -0.654419, +0.169678, +19.764061, +6.612644, -19.950943 
1488856185.427627, 1488856185.427627, -1.544067, -0.654419, +0.169678, +19.764061, +6.612644, -19.950943 
1488856185.431518, 1488856185.431518, -1.492554, -0.524048, +0.199707, +19.764061, +6.612644, -19.950943 
1488856185.435520, 1488856185.435520, -1.492554, -0.524048, +0.199707, -0.865822, -10.263577, -55.473404 
1488856185.439270, 1488856185.439270, -1.492554, -0.524048, +0.199707, -0.865822, -10.263577, -55.473404 
1488856185.443035, 1488856185.443035, -1.492554, -0.524048, +0.199707, -0.865822, -10.263577, -55.473404 
1488856185.446973, 1488856185.446973, -1.492554, -0.524048, +0.199707, -19.863014, -25.858059, -89.592056 
1488856185.451143, 1488856185.451143, -1.570923, -0.474976, +0.357422, -19.863014, -25.858059, -89.592056 
1488856185.455312, 1488856185.455312, -1.570923, -0.474976, +0.357422, -19.863014, -25.858059, -124.748306 
1488856185.459264, 1488856185.459264, -1.570923, -0.474976, +0.357422, -39.943581, -40.125027, -121.482925 
1488856185.463259, 1488856185.463259, -1.570923, -0.474976, +0.357422, -39.943581, -40.125027, -121.482925 
1488856185.467208, 1488856185.467208, -1.570923, -0.474976, +0.357422, -56.285744, -48.929348, -145.469742 
1488856185.471155, 1488856185.471155, -1.126953, +0.517212, -0.455444, -56.285744, -48.929348, -145.469742 
1488856185.475112, 1488856185.475112, -1.126953, +0.517212, -0.455444, -56.285744, -48.929348, -145.469742 
1488856185.479061, 1488856185.479061, -1.126953, +0.517212, -0.455444, -86.284523, -40.063992, -151.313858 
1488856185.483019, 1488856185.483019, -1.126953, +0.517212, -0.455444, -86.284523, -40.063992, -151.313858 
1488856185.486780, 1488856185.486780, -1.126953, +0.517212, -0.455444, -86.284523, -40.063992, -151.313858 
1488856185.490527, 1488856185.490527, -0.064453, +3.580322, -1.147583, -118.968849, -24.240627, -113.853531 
1488856185.494295, 1488856185.494295, -0.077637, +3.580322, -1.147583, -118.968849, -24.240627, -113.853531 
1488856185.498045, 1488856185.498045, -0.077637, +3.580322, -1.147583, -118.968849, -24.240627, -113.853531 
1488856185.501799, 1488856185.501799, -0.077637, +3.580322, -1.147583, -39.470558, -4.648342, -39.558487 
1488856185.505700, 1488856185.505700, -0.077637, +3.580322, -1.147583, -39.470558, -4.648342, -39.558487 
1488856185.509448, 1488856185.509448, -0.077637, +3.580322, +0.508667, -39.470558, -4.648342, -39.558487 
1488856185.513359, 1488856185.513359, -1.784546, -0.257446, +0.527222, +16.651268, +16.439304, -16.410904 
1488856185.517281, 1488856185.517281, -1.784546, -0.257446, +0.527222, +16.651268, +16.439304, -16.410904 
1488856185.521202, 1488856185.521202, -1.784546, -0.257446, +0.527222, +16.651268, -10.904446, -58.921890 
1488856185.525116, 1488856185.525116, -1.784546, -0.257446, +0.527222, -36.693459, -10.980740, -58.921890 
1488856185.529004, 1488856185.529004, -1.784546, -0.257446, +0.527222, -36.693459, -10.980740, -58.921890 
1488856185.532901, 1488856185.532901, -2.000244, -0.367432, +0.291626, -62.053566, -28.192654, -96.244888 
1488856185.536662, 1488856185.536662, -2.000244, -0.367432, +0.291626, -62.053566, -28.192654, -96.244888 
1488856185.540415, 1488856185.540415, -2.000244, -0.367432, +0.291626, -62.053566, -28.192654, -96.244888 
1488856185.544273, 1488856185.544273, -2.000244, -0.367432, +0.291626, -62.129860, -20.074978, -93.895035 
1488856185.548229, 1488856185.548229, -2.000244, -0.367432, +0.291626, -62.129860, -20.074978, -93.895035 
1488856185.552170, 1488856185.552170, -1.377808, -0.017212, -0.732544, -62.129860, -20.074978, -93.895035 
1488856185.556128, 1488856185.556128, -1.377808, -0.017212, -0.732544, -50.624733, -1.993313, -89.042740 
1488856185.560074, 1488856185.560074, -1.377808, -0.017212, -0.732544, -50.624733, -1.993313, -89.042740 
1488856185.564064, 1488856185.564064, -1.377808, -0.017212, -0.732544, -50.624733, -1.993313, -89.042740 
1488856185.568010, 1488856185.568010, -1.377808, -0.017212, -0.732544, -40.157204, +12.884007, -99.861221 
1488856185.572571, 1488856185.572571, -1.440796, +0.291260, -0.613525, -40.157204, +12.884007, -99.861221 
1488856185.576533, 1488856185.576533, -1.440796, +0.291260, -0.613525, -47.008400, +1.455173, -107.276993 
1488856185.580475, 1488856185.580475, -1.440796, +0.291260, -0.613525, -47.008400, +1.455173, -107.276993 
1488856185.584352, 1488856185.584352, -1.440796, +0.291260, -0.613525, -47.008400, +1.455173, -107.276993 
1488856185.588098, 1488856185.588098, -1.440796, +0.291260, -0.613525, -43.865089, -16.870632, -99.617081 
1488856185.591848, 1488856185.591848, -1.044189, -0.399414, -0.499390, -43.865089, -16.870632, -99.617081 
1488856185.595743, 1488856185.595743, -1.044189, -0.399414, -0.499390, -43.865089, -16.870632, -99.617081 
1488856185.599788, 1488856185.599788, -1.044189, -0.399414, -0.499390, -9.792213, -18.884792, -83.473282 
1488856185.603726, 1488856185.603726, -1.044189, -0.399414, -0.499390, -9.792213, -18.884792, -83.473282 
1488856185.607469, 1488856185.607469, -1.044189, -0.399414, -0.499390, -9.792213, -18.884792, -83.473282 
1488856185.611218, 1488856185.611218, -0.842896, -0.400269, -0.704102, +41.385765, -16.748562, -67.848282 
1488856185.615127, 1488856185.615127, -0.842896, -0.400269, -0.704102, +41.385765, -16.748562, -67.848282 
1488856185.618880, 1488856185.618880, -0.842896, -0.400269, -0.704102, +41.385765, -16.748562, -52.146988 
1488856185.622631, 1488856185.622631, -0.842896, -0.400269, -0.704102, +76.740379, -14.932766, -52.146988 
1488856185.626635, 1488856185.626635, -0.842896, -0.400269, -0.704102, +76.740379, -14.932766, -52.146988 
1488856185.630578, 1488856185.630578, -1.135010, +0.145752, -0.284668, +75.962181, -15.726223, -44.380264 
1488856185.634465, 1488856185.634465, -1.135010, +0.145752, -0.284668, +75.962181, -15.726223, -44.380264 
1488856185.638213, 1488856185.638213, -1.135010, +0.145752, -0.284668, +75.962181, -15.726223, -44.380264 
1488856185.641960, 1488856185.641960, -1.135010, +0.145752, -0.284668, +53.775902, -17.786160, -44.044571 
1488856185.645900, 1488856185.645900, -1.135010, +0.145752, -0.284668, +53.775902, -17.786160, -44.044571 
1488856185.649841, 1488856185.649841, -1.212036, +0.265869, -0.289917, +53.775902, -17.786160, -44.044571 
1488856185.653794, 1488856185.653794, -1.212036, +0.265869, -0.289917, +32.962914, -17.847195, -45.112686 
1488856185.657740, 1488856185.657740, -1.212036, +0.265869, -0.289917, +32.962914, -17.847195, -45.112686 
1488856185.661684, 1488856185.661684, -1.212036, +0.265869, -0.289917, +32.962914, -17.847195, -45.112686 
1488856185.665635, 1488856185.665635, -1.212036, +0.265869, -0.289917, +15.628929, -14.322414, -45.845108 
1488856185.669578, 1488856185.669578, -1.172363, +0.175781, -0.213257, +15.628929, -14.322414, -45.845108 
1488856185.673517, 1488856185.673517, -1.172363, +0.175781, -0.213257, +15.628929, -14.322414, -47.050552 
1488856185.677263, 1488856185.677263, -1.172363, +0.175781, -0.213257, +4.093285, -10.812893, -47.050552 
1488856185.681184, 1488856185.681184, -1.172363, +0.175781, -0.213257, +4.093285, -10.812893, -47.050552 
1488856185.685483, 1488856185.685483, -1.172363, +0.175781, -0.213257, -0.499611, -10.156765, -45.967178 
1488856185.689430, 1488856185.689430, -1.149170, +0.033325, -0.314087, -0.499611, -10.156765, -45.967178 
1488856185.693384, 1488856185.693384, -1.149170, +0.033325, -0.314087, -0.499611, -10.156765, -45.967178 
1488856185.697327, 1488856185.697327, -1.149170, +0.033325, -0.314087, +1.819725, -11.011257, -42.121964 
1488856185.701276, 1488856185.701276, -1.149170, +0.033325, -0.314087, +1.819725, -11.011257, -42.121964 
1488856185.705225, 1488856185.705225, -1.149170, +0.033325, -0.314087, +1.819725, -11.011257, -42.121964 
1488856185.709173, 1488856185.709173, -1.066895, -0.002808, -0.521851, +7.755394, -10.660305, -37.361221 
1488856185.713125, 1488856185.713125, -1.066895, -0.002808, -0.521851, +7.755394, -10.660305, -37.361221 
1488856185.716876, 1488856185.716876, -1.066895, -0.002808, -0.521851, +7.755394, -10.660305, -31.684952 
1488856185.720619, 1488856185.720619, -1.066895, -0.002808, -0.521851, +17.704124, -11.575832, -31.684952 
1488856185.724420, 1488856185.724420, -1.066895, -0.002808, -0.521851, +17.704124, -11.575832, -31.684952 
1488856185.728170, 1488856185.728170, -1.066895, -0.002808, -0.469604, +17.704124, -15.482082, -25.795059 
1488856185.731924, 1488856185.731924, -1.039795, -0.044067, -0.469604, +30.979271, -14.078274, -25.795059 
1488856185.735771, 1488856185.735771, -1.039795, -0.044067, -0.469604, +30.979271, -14.078274, -25.795059 
1488856185.739521, 1488856185.739521, -1.039795, -0.044067, -0.469604, +40.592308, -16.031399, -20.286636 
1488856185.743413, 1488856185.743413, -1.039795, -0.044067, -0.469604, +40.592308, -16.031399, -20.286636 
1488856185.747353, 1488856185.747353, -1.039795, -0.044067, -0.469604, +40.592308, -16.031399, -20.286636 
1488856185.751411, 1488856185.751411, -1.032959, +0.045166, -0.453613, +46.970482, -16.916409, -17.814713 
1488856185.755260, 1488856185.755260, -1.032959, +0.045166, -0.453613, +46.970482, -16.916409, -17.814713 
1488856185.759001, 1488856185.759001, -1.032959, +0.045166, -0.453613, +46.970482, -16.916409, -17.814713 
1488856185.762757, 1488856185.762757, -1.032959, +0.045166, -0.453613, +48.069115, -17.969265, -17.540054 
1488856185.766728, 1488856185.766728, -1.032959, +0.045166, -0.453613, +48.069115, -17.969265, -17.540054 
1488856185.770674, 1488856185.770674, -1.036499, +0.285645, -0.399658, +48.069115, -17.969265, -17.540054 
1488856185.774545, 1488856185.774545, -1.036499, +0.285645, -0.399658, +44.178123, -18.457546, -19.218521 
1488856185.778294, 1488856185.778294, -1.036499, +0.285645, -0.399658, +44.178123, -18.457546, -19.218521 
1488856185.782042, 1488856185.782042, -1.036499, +0.285645, -0.399658, +44.178123, -18.457546, -23.124771 
1488856185.785974, 1488856185.785974, -1.036499, +0.285645, -0.399658, +35.770531, -18.320217, -21.629410 
1488856185.789918, 1488856185.789918, -1.083130, +0.111450, -0.281494, +35.770531, -18.320217, -21.629410 
1488856185.793880, 1488856185.793880, -1.083130, +0.111450, -0.281494, +27.515526, -19.937649, -26.313858 
1488856185.797828, 1488856185.797828, -1.083130, +0.111450, -0.281494, +27.515526, -19.937649, -26.313858 
1488856185.801912, 1488856185.801912, -1.083130, +0.111450, -0.281494, +27.515526, -19.937649, -26.313858 
1488856185.806161, 1488856185.806161, -1.083130, +0.111450, -0.281494, +21.457787, -21.722927, -30.220108 
1488856185.809915, 1488856185.809915, -1.029663, +0.142456, -0.389771, +21.457787, -21.722927, -30.220108 
1488856185.813720, 1488856185.813720, -1.029663, +0.142456, -0.389771, +21.457787, -21.722927, -30.220108 
1488856185.817665, 1488856185.817665, -1.029663, +0.142456, -0.389771, +19.519920, -22.821560, -32.768326 
1488856185.821605, 1488856185.821605, -1.029663, +0.142456, -0.389771, +19.519920, -22.821560, -32.768326 
1488856185.825562, 1488856185.825562, -1.029663, +0.142456, -0.389771, +19.519920, -22.821560, -32.768326 
1488856185.829505, 1488856185.829505, -1.048340, +0.001099, -0.396118, +19.062157, -22.791042, -33.378677 
1488856185.833453, 1488856185.833453, -1.048340, +0.001099, -0.396118, +19.062157, -22.791042, -33.378677 
1488856185.837209, 1488856185.837209, -1.048340, +0.001099, -0.396118, +19.062157, -22.806301, -33.348160 
1488856185.840946, 1488856185.840946, -1.048340, +0.001099, -0.396118, +20.115013, -22.806301, -33.348160 
1488856185.844705, 1488856185.844705, -1.048340, +0.001099, -0.396118, +20.115013, -22.806301, -33.348160 
1488856185.848454, 1488856185.848454, -1.042725, +0.029297, -0.393921, +21.350975, -23.737087, -33.241348 
1488856185.852206, 1488856185.852206, -1.042725, +0.029297, -0.393921, +21.350975, -23.737087, -33.241348 
1488856185.856097, 1488856185.856097, -1.042725, +0.029297, -0.393921, +21.350975, -23.737087, -33.241348 
1488856185.859842, 1488856185.859842, -1.042725, +0.029297, -0.393921, +21.656151, -24.057522, -33.058243 
1488856185.863781, 1488856185.863781, -1.042725, +0.029297, -0.393921, +21.656151, -24.057522, -33.058243 
1488856185.867732, 1488856185.867732, -1.105225, +0.028564, -0.370483, +21.656151, -24.057522, -33.058243 
1488856185.871677, 1488856185.871677, -1.096558, +0.028564, -0.370483, +21.076317, -23.920193, -33.592300 
1488856185.875631, 1488856185.875631, -1.096558, +0.028564, -0.370483, +21.076317, -23.920193, -33.592300 
1488856185.879579, 1488856185.879579, -1.096558, +0.028564, -0.370483, +21.076317, -23.920193, -33.592300 
1488856185.883534, 1488856185.883534, -1.096558, +0.028564, -0.370483, +19.611473, -24.667873, -33.973770 
1488856185.887480, 1488856185.887480, -1.096558, -0.028076, -0.310059, +19.611473, -24.667873, -33.973770 
1488856185.891428, 1488856185.891428, -1.117798, -0.028076, -0.310059, +19.611473, -24.667873, -33.546524 
1488856185.895389, 1488856185.895389, -1.117798, -0.028076, -0.310059, +20.115013, -25.232449, -33.546524 
1488856185.899444, 1488856185.899444, -1.117798, -0.028076, -0.310059, +20.115013, -25.232449, -33.546524 
1488856185.903376, 1488856185.903376, -1.117798, -0.028076, -0.310059, +21.015282, -25.354519, -32.661514 
1488856185.907125, 1488856185.907125, -1.117798, -0.046265, -0.328125, +21.015282, -25.354519, -32.661514 
1488856185.910874, 1488856185.910874, -1.084229, -0.046265, -0.328125, +21.015282, -25.354519, -32.661514 
1488856185.914734, 1488856185.914734, -1.084229, -0.046265, -0.328125, +21.869774, -24.438992, -31.715469 
1488856185.918680, 1488856185.918680, -1.084229, -0.046265, -0.328125, +21.869774, -24.438992, -31.715469 
1488856185.923255, 1488856185.923255, -1.084229, -0.046265, -0.328125, +21.869774, -24.438992, -31.715469 
1488856185.927205, 1488856185.927205, -1.115479, -0.042603, -0.289673, +21.244164, -24.500027, -31.868057 
1488856185.931152, 1488856185.931152, -1.119507, -0.042603, -0.289673, +21.244164, -24.500027, -31.868057 
1488856185.935112, 1488856185.935112, -1.119507, -0.042603, -0.289673, +21.244164, -25.034084, -32.371597 
1488856185.939058, 1488856185.939058, -1.119507, -0.042603, -0.289673, +19.199486, -25.034084, -32.371597 
1488856185.943008, 1488856185.943008, -1.119507, -0.042603, -0.289673, +19.199486, -25.034084, -32.371597 
1488856185.946959, 1488856185.946959, -1.088257, -0.092285, -0.301636, +19.336815, -25.644436, -33.027725 
1488856185.950903, 1488856185.950903, -1.078491, -0.092285, -0.301636, +19.336815, -25.644436, -33.027725 
1488856185.954805, 1488856185.954805, -1.078491, -0.092285, -0.301636, +19.336815, -25.644436, -33.027725 
1488856185.958551, 1488856185.958551, -1.078491, -0.092285, -0.301636, +21.244164, -26.224270, -33.195572 
1488856185.962298, 1488856185.962298, -1.078491, -0.092285, -0.301636, +21.244164, -26.224270, -33.195572 
1488856185.966058, 1488856185.966058, -1.078491, -0.092285, -0.395386, +21.244164, -26.224270, -33.195572 
1488856185.969809, 1488856185.969809, -1.117798, -0.001343, -0.396118, +22.403831, -25.964870, -32.432632 
1488856185.973645, 1488856185.973645, -1.117798, -0.001343, -0.396118, +22.403831, -25.964870, -32.432632 
1488856185.977403, 1488856185.977403, -1.117798, -0.001343, -0.396118, +22.403831, -25.964870, -32.432632 
1488856185.981154, 1488856185.981154, -1.117798, -0.001343, -0.396118, +22.480125, -25.140896, -32.264786 
1488856185.985149, 1488856185.985149, -1.117798, -0.001343, -0.396118, +22.480125, -25.140896, -32.264786 
1488856185.989092, 1488856185.989092, -1.228882, -0.102905, -0.330811, +22.480125, -25.140896, -32.829361 
1488856185.993047, 1488856185.993047, -1.228882, -0.102905, -0.330811, +24.173851, -26.086941, -32.829361 
1488856185.996995, 1488856185.996995, -1.228882, -0.102905, -0.330811, +24.173851, -26.086941, -32.829361 
1488856186.000942, 1488856186.000942, -1.228882, -0.102905, -0.330811, +27.454491, -27.719631, -32.417374 
1488856186.004800, 1488856186.004800, -1.228882, -0.102905, -0.330811, +27.454491, -27.719631, -32.417374 
1488856186.008543, 1488856186.008543, -1.159668, -0.064209, -0.342041, +27.454491, -27.719631, -32.417374 
1488856186.012291, 1488856186.012291, -1.159668, -0.064209, -0.342041, +31.208153, -30.023708, -32.692032 
1488856186.016052, 1488856186.016052, -1.159668, -0.064209, -0.342041, +31.208153, -30.023708, -32.692032 
1488856186.019803, 1488856186.019803, -1.159668, -0.064209, -0.342041, +31.208153, -30.023708, -32.692032 
1488856186.023645, 1488856186.023645, -1.159668, -0.064209, -0.342041, +34.153099, -32.724514, -34.477310 
1488856186.027394, 1488856186.027394, -1.156128, +0.048218, -0.376221, +34.153099, -32.724514, -34.477310 
1488856186.031140, 1488856186.031140, -1.156128, +0.048218, -0.376221, +34.153099, -32.724514, -34.477310 
1488856186.035133, 1488856186.035133, -1.156128, +0.048218, -0.376221, +32.505150, -34.937038, -38.124161 
1488856186.039100, 1488856186.039100, -1.156128, +0.048218, -0.376221, +32.505150, -34.937038, -38.124161 
1488856186.043439, 1488856186.043439, -1.156128, +0.048218, -0.376221, +32.505150, -34.937038, -42.991714 
1488856186.047494, 1488856186.047494, -1.159790, +0.031494, -0.364014, +28.858299, -38.828030, -42.991714 
1488856186.051444, 1488856186.051444, -1.159790, +0.031494, -0.364014, +28.858299, -38.828030, -42.991714 
1488856186.055292, 1488856186.055292, -1.159790, +0.031494, -0.364014, +26.050682, -42.261257, -46.943741 
1488856186.059045, 1488856186.059045, -1.159790, +0.031494, -0.364014, +26.050682, -42.261257, -46.943741 
1488856186.062802, 1488856186.062802, -1.159790, +0.031494, -0.364014, +26.050682, -42.261257, -46.943741 
1488856186.066587, 1488856186.066587, -1.201538, -0.124756, -0.374390, +26.096458, -44.962063, -50.514297 
1488856186.070330, 1488856186.070330, -1.201538, -0.124756, -0.374390, +26.096458, -44.962063, -50.514297 
1488856186.074113, 1488856186.074113, -1.201538, -0.124756, -0.374390, +26.096458, -44.962063, -50.514297 
1488856186.077861, 1488856186.077861, -1.201538, -0.124756, -0.374390, +29.346581, -47.968044, -53.550797 
1488856186.081604, 1488856186.081604, -1.201538, -0.124756, -0.374390, +29.346581, -47.968044, -53.550797 
1488856186.085402, 1488856186.085402, -1.201538, -0.124756, -0.351440, +29.346581, -47.968044, -53.550797 
1488856186.089146, 1488856186.089146, -1.252319, -0.051758, -0.351440, +33.344383, -51.401272, -55.641251 
1488856186.092893, 1488856186.092893, -1.252319, -0.051758, -0.351440, +33.344383, -51.401272, -55.641251 
1488856186.096688, 1488856186.096688, -1.252319, -0.051758, -0.351440, +33.344383, -51.401272, -55.641251 
1488856186.100426, 1488856186.100426, -1.252319, -0.051758, -0.351440, +34.137840, -55.841579, -58.357315 
1488856186.104337, 1488856186.104337, -1.252319, -0.051758, -0.351440, +34.137840, -55.841579, -58.357315 
1488856186.108080, 1488856186.108080, -1.251343, -0.064819, -0.354736, +34.137840, -55.841579, -58.357315 
1488856186.111819, 1488856186.111819, -1.251343, -0.064819, -0.354736, +34.336205, -59.427395, -62.202530 
1488856186.115756, 1488856186.115756, -1.251343, -0.064819, -0.354736, +34.336205, -59.427395, -62.202530 
1488856186.119709, 1488856186.119709, -1.251343, -0.064819, -0.354736, +34.336205, -59.427395, -65.773087 
1488856186.123666, 1488856186.123666, -1.251343, -0.064819, -0.354736, +32.962914, -62.280788, -65.773087 
1488856186.127615, 1488856186.127615, -1.287720, -0.096069, -0.390747, +32.962914, -62.280788, -65.773087 
1488856186.131564, 1488856186.131564, -1.287720, -0.096069, -0.390747, +32.489891, -65.012115, -69.267349 
1488856186.135522, 1488856186.135522, -1.287720, -0.096069, -0.390747, +32.489891, -65.012115, -69.267349 
1488856186.139472, 1488856186.139472, -1.287720, -0.096069, -0.390747, +32.489891, -65.012115, -69.267349 
1488856186.143646, 1488856186.143646, -1.287720, -0.096069, -0.390747, +36.487694, -67.682404, -72.181778 
1488856186.147532, 1488856186.147532, -1.341919, -0.045654, -0.362427, +36.487694, -67.682404, -72.181778 
1488856186.151597, 1488856186.151597, -1.341919, -0.045654, -0.362427, +36.487694, -67.682404, -72.181778 
1488856186.155413, 1488856186.155413, -1.341919, -0.045654, -0.362427, +41.233177, -70.535797, -74.028091 
1488856186.159158, 1488856186.159158, -1.341919, -0.045654, -0.362427, +41.233177, -70.535797, -74.028091 
1488856186.162902, 1488856186.162902, -1.341919, -0.045654, -0.362427, +41.233177, -70.535797, -74.028091 
1488856186.166651, 1488856186.166651, -1.457886, +0.010986, -0.469971, +41.675682, -73.541779, -79.551773 
1488856186.170494, 1488856186.170494, -1.457886, +0.010986, -0.469971, +41.675682, -73.541779, -79.551773 
1488856186.174271, 1488856186.174271, -1.457886, +0.010986, -0.469971, +41.675682, -73.541779, -85.212784 
1488856186.178024, 1488856186.178024, -1.457886, +0.010986, -0.469971, +42.499657, -75.052399, -85.212784 
1488856186.181763, 1488856186.181763, -1.457886, +0.010986, -0.469971, +42.499657, -75.052399, -85.212784 
1488856186.185576, 1488856186.185576, -1.548218, +0.112915, -0.447021, +42.499657, -78.958649, -89.210587 
1488856186.189322, 1488856186.189322, -1.548218, +0.112915, -0.447021, +45.887108, -77.890533, -89.210587 
1488856186.193164, 1488856186.193164, -1.548218, +0.112915, -0.447021, +45.887108, -77.890533, -89.210587 
1488856186.197030, 1488856186.197030, -1.548218, +0.112915, -0.447021, +50.998802, -80.011505, -92.628555 
1488856186.200773, 1488856186.200773, -1.548218, +0.112915, -0.447021, +50.998802, -80.011505, -92.628555 
1488856186.204636, 1488856186.204636, -1.548218, +0.237915, -0.536987, +50.998802, -80.011505, -92.628555 
1488856186.208375, 1488856186.208375, -1.741333, +0.226074, -0.536987, +59.101219, -83.749908, -98.091202 
1488856186.212125, 1488856186.212125, -1.741333, +0.226074, -0.536987, +59.101219, -83.749908, -98.091202 
1488856186.215870, 1488856186.215870, -1.741333, +0.226074, -0.536987, +59.101219, -83.749908, -98.091202 
1488856186.219618, 1488856186.219618, -1.741333, +0.226074, -0.536987, +66.028709, -87.076324, -103.630142 
1488856186.223362, 1488856186.223362, -1.741333, +0.226074, -0.536987, +66.028709, -87.076324, -103.630142 
1488856186.227112, 1488856186.227112, -1.829346, +0.396118, -0.582397, +66.028709, -87.076324, -103.630142 
1488856186.230860, 1488856186.230860, -1.829346, +0.396118, -0.582397, +71.766014, -88.449615, -105.659561 
1488856186.234738, 1488856186.234738, -1.829346, +0.396118, -0.582397, +71.766014, -88.449615, -105.659561 
1488856186.238685, 1488856186.238685, -1.829346, +0.396118, -0.582397, +71.766014, -88.449615, -105.659561 
1488856186.242628, 1488856186.242628, -1.829346, +0.396118, -0.582397, +80.265160, -90.021271, -103.157120 
1488856186.246594, 1488856186.246594, -1.843384, +0.217896, -0.531494, +80.265160, -90.021271, -103.157120 
1488856186.250550, 1488856186.250550, -1.843384, +0.217896, -0.531494, +80.265160, -90.021271, -97.389297 
1488856186.254441, 1488856186.254441, -1.843384, +0.217896, -0.531494, +96.546288, -92.630524, -97.389297 
1488856186.258191, 1488856186.258191, -1.843384, +0.217896, -0.531494, +96.546288, -92.630524, -97.389297 
1488856186.262091, 1488856186.262091, -1.843384, +0.217896, -0.531494, +106.128807, -97.223419, -90.461807 
1488856186.266572, 1488856186.266572, -1.630981, +0.058228, -0.507324, +106.128807, -97.223419, -90.461807 
1488856186.270314, 1488856186.270314, -1.630981, +0.058228, -0.507324, +106.128807, -97.223419, -90.461807 
1488856186.274112, 1488856186.274112, -1.630981, +0.058228, -0.507324, +104.465599, -104.791779, -85.838394 
1488856186.277861, 1488856186.277861, -1.630981, +0.058228, -0.507324, +104.465599, -104.791779, -85.838394 
1488856186.281604, 1488856186.281604, -1.630981, +0.058228, -0.507324, +104.465599, -104.791779, -85.838394 
1488856186.285406, 1488856186.285406, -1.167847, +0.058594, -0.546753, +84.232445, -107.187408, -85.365372 
1488856186.289143, 1488856186.289143, -1.167847, +0.058594, -0.546753, +84.232445, -107.187408, -85.365372 
1488856186.292886, 1488856186.292886, -1.167847, +0.058594, -0.546753, +84.232445, -107.187408, -85.365372 
1488856186.296633, 1488856186.296633, -1.167847, +0.058594, -0.546753, +49.549217, -98.444122, -90.339737 
1488856186.300377, 1488856186.300377, -1.167847, +0.058594, -0.546753, +49.549217, -98.444122, -90.339737 
1488856186.304130, 1488856186.304130, -1.167847, -0.268311, -0.311646, +49.549217, -98.444122, -90.339737 
1488856186.307870, 1488856186.307870, -0.920654, -0.268311, -0.311646, +16.300316, -80.194611, -92.887955 
1488856186.311620, 1488856186.311620, -0.920654, -0.268311, -0.311646, +16.300316, -80.194611, -92.887955 
1488856186.315544, 1488856186.315544, -0.920654, -0.268311, -0.311646, +16.300316, -80.194611, -92.887955 
1488856186.319299, 1488856186.319299, -0.920654, -0.268311, -0.311646, -2.529030, -63.715115, -90.904312 
1488856186.323117, 1488856186.323117, -0.920654, -0.268311, -0.311646, -2.529030, -63.715115, -90.904312 
1488856186.327067, 1488856186.327067, -0.691162, -0.798096, -0.283203, -2.529030, -44.183865, -79.750137 
1488856186.331010, 1488856186.331010, -0.691162, -0.798096, -0.283203, +11.173363, -47.540798, -79.750137 
1488856186.334974, 1488856186.334974, -0.691162, -0.798096, -0.283203, +11.173363, -47.540798, -79.750137 
1488856186.338925, 1488856186.338925, -0.691162, -0.798096, -0.283203, +45.841331, -34.128323, -57.319717 
1488856186.342988, 1488856186.342988, -0.691162, -0.798096, -0.345703, +45.841331, -34.128323, -57.319717 
1488856186.346933, 1488856186.346933, -0.561035, -0.201050, -0.353027, +45.841331, -34.128323, -57.319717 
1488856186.350872, 1488856186.350872, -0.561035, -0.201050, -0.353027, +77.320213, -28.329983, -27.107315 
1488856186.354746, 1488856186.354746, -0.561035, -0.201050, -0.353027, +77.320213, -28.329983, -27.107315 
1488856186.358490, 1488856186.358490, -0.561035, -0.201050, -0.353027, +77.320213, -28.329983, -27.107315 
1488856186.362245, 1488856186.362245, -0.561035, -0.201050, -0.353027, +79.792137, -21.509304, -2.586441 
1488856186.366170, 1488856186.366170, -0.256836, +0.649292, -0.253296, +79.792137, -21.509304, -2.586441 
1488856186.370110, 1488856186.370110, -0.256836, +0.649292, -0.253296, +79.792137, -21.509304, +16.944809 
1488856186.374104, 1488856186.374104, -0.256836, +0.649292, -0.253296, +69.385643, -14.017239, +19.004745 
1488856186.378046, 1488856186.378046, -0.256836, +0.649292, -0.253296, +69.385643, -14.017239, +19.004745 
1488856186.382054, 1488856186.382054, -0.256836, +0.649292, -0.253296, +50.525780, -5.121365, +32.310410 
1488856186.386254, 1488856186.386254, -0.262085, +0.480835, +0.063599, +50.525780, -5.121365, +32.310410 
1488856186.390207, 1488856186.390207, -0.262085, +0.480835, +0.063599, +50.525780, -5.121365, +32.310410 
1488856186.394165, 1488856186.394165, -0.262085, +0.480835, +0.063599, +28.446312, +5.925999, +40.779037 
1488856186.398114, 1488856186.398114, -0.262085, +0.480835, +0.063599, +28.446312, +5.925999, +40.779037 
1488856186.402068, 1488856186.402068, -0.262085, +0.480835, +0.063599, +28.446312, +5.925999, +40.779037 
1488856186.405864, 1488856186.405864, -0.391113, +0.258789, +0.064209, +6.656761, +17.904148, +50.941391 
1488856186.409619, 1488856186.409619, -0.391113, +0.258789, +0.064209, +6.656761, +17.904148, +50.941391 
1488856186.413375, 1488856186.413375, -0.391113, +0.258789, +0.064209, +6.656761, +17.904148, +50.941391 
1488856186.417127, 1488856186.417127, -0.391113, +0.258789, +0.064209, -12.767677, +30.492649, +64.308090 
1488856186.420882, 1488856186.420882, -0.391113, +0.258789, +0.064209, -12.767677, +30.492649, +64.308090 
1488856186.424694, 1488856186.424694, -0.445068, +0.125610, +0.016846, -12.767677, +30.492649, +79.933090 
1488856186.428447, 1488856186.428447, -0.445068, +0.125610, +0.016846, -26.149635, +42.272434, +78.788681 
1488856186.432203, 1488856186.432203, -0.445068, +0.125610, +0.016846, -26.149635, +42.272434, +78.788681 
1488856186.436115, 1488856186.436115, -0.445068, +0.125610, +0.016846, -26.149635, +56.798801, +92.826767 
1488856186.439871, 1488856186.439871, -0.445068, +0.125610, +0.016846, -33.367043, +56.798801, +92.826767 
1488856186.443799, 1488856186.443799, -0.467529, +0.202759, -0.076416, -33.367043, +56.798801, +92.826767 
1488856186.447742, 1488856186.447742, -0.467529, +0.202759, -0.076416, -43.147926, +69.112640, +106.315536 
1488856186.451694, 1488856186.451694, -0.467529, +0.202759, -0.076416, -43.147926, +69.112640, +106.315536 
1488856186.455545, 1488856186.455545, -0.467529, +0.202759, -0.076416, -43.147926, +69.112640, +106.315536 
1488856186.459299, 1488856186.459299, -0.467529, +0.202759, -0.076416, -52.287941, +81.868988, +117.469711 
1488856186.463068, 1488856186.463068, -0.530029, +0.271606, -0.214844, -52.287941, +81.868988, +117.469711 
1488856186.467015, 1488856186.467015, -0.524170, +0.271606, -0.214844, -52.287941, +81.868988, +117.469711 
1488856186.470958, 1488856186.470958, -0.524170, +0.271606, -0.214844, -61.305885, +95.189911, +126.792831 
1488856186.474917, 1488856186.474917, -0.524170, +0.271606, -0.214844, -61.305885, +95.189911, +126.792831 
1488856186.478861, 1488856186.478861, -0.524170, +0.271606, -0.214844, -61.305885, +95.189911, +134.605331 
1488856186.482813, 1488856186.482813, -0.742920, +0.341797, -0.145508, -73.802834, +106.115204, +135.688705 
1488856186.486810, 1488856186.486810, -0.727173, +0.341797, -0.145508, -73.802834, +106.115204, +135.688705 
1488856186.490870, 1488856186.490870, -0.727173, +0.341797, -0.145508, -89.168434, +113.942963, +143.791122 
1488856186.494739, 1488856186.494739, -0.727173, +0.341797, -0.145508, -89.168434, +113.942963, +143.791122 
1488856186.498493, 1488856186.498493, -0.727173, +0.341797, -0.145508, -89.168434, +113.942963, +143.791122 
1488856186.502464, 1488856186.502464, -0.727173, +0.106567, -0.040649, -100.749855, +119.298798, +151.832504 
1488856186.506554, 1488856186.506554, -0.883301, +0.106567, -0.040649, -100.749855, +119.298798, +151.832504 
1488856186.510512, 1488856186.510512, -0.883301, +0.106567, -0.040649, -100.749855, +119.298798, +151.832504 
1488856186.514492, 1488856186.514492, -0.883301, +0.106567, -0.040649, -84.651833, +121.679169, +163.444443 
1488856186.518452, 1488856186.518452, -0.883301, +0.106567, -0.040649, -84.651833, +121.679169, +163.444443 
1488856186.522394, 1488856186.522394, -0.883301, -0.290527, -0.257812, -84.651833, +121.679169, +179.069443 
1488856186.526354, 1488856186.526354, -1.208618, -0.290527, -0.257812, -40.477638, +111.821991, +178.626938 
1488856186.530301, 1488856186.530301, -1.208618, -0.290527, -0.257812, -40.477638, +111.821991, +178.626938 
1488856186.534233, 1488856186.534233, -1.208618, -0.290527, -0.257812, -20.946388, +99.279266, +196.998520 
1488856186.537991, 1488856186.537991, -1.208618, -0.290527, -0.257812, -17.742043, +99.279266, +196.998520 
1488856186.541743, 1488856186.541743, -1.208618, -0.290527, -0.071289, -17.742043, +99.279266, +196.998520 
1488856186.545512, 1488856186.545512, -1.328247, +0.072998, -0.071289, -23.357277, +99.065643, +213.722153 
1488856186.549259, 1488856186.549259, -1.328247, +0.072998, -0.071289, -23.357277, +99.065643, +213.722153 
1488856186.553130, 1488856186.553130, -1.328247, +0.072998, -0.071289, -23.357277, +99.065643, +213.722153 
1488856186.556890, 1488856186.556890, -1.328247, +0.072998, -0.071289, -35.686378, +108.861786, +221.900864 
1488856186.560648, 1488856186.560648, -1.328247, +0.072998, -0.071289, -35.686378, +108.861786, +221.900864 
1488856186.564607, 1488856186.564607, -1.368286, -0.148193, -0.197754, -35.686378, +108.861786, +221.900864 
1488856186.568529, 1488856186.568529, -1.368286, -0.148193, -0.197754, -40.111427, +118.368011, +224.235458 
1488856186.572455, 1488856186.572455, -1.368286, -0.148193, -0.197754, -40.111427, +118.368011, +224.235458 
1488856186.576390, 1488856186.576390, -1.368286, -0.148193, -0.197754, -40.111427, +118.368011, +224.235458 
1488856186.580318, 1488856186.580318, -1.368286, -0.148193, -0.197754, -43.941383, +121.328217, +221.305771 
1488856186.584289, 1488856186.584289, -1.491943, -0.075317, -0.250854, -43.941383, +121.328217, +221.305771 
1488856186.588216, 1488856186.588216, -1.491943, -0.075317, -0.250854, -43.941383, +121.328217, +213.722153 
1488856186.592143, 1488856186.592143, -1.491943, -0.075317, -0.250854, -51.509743, +121.984344, +213.722153 
1488856186.596121, 1488856186.596121, -1.491943, -0.075317, -0.250854, -51.509743, +121.984344, +213.722153 
1488856186.600068, 1488856186.600068, -1.491943, -0.075317, -0.250854, -60.100441, +122.396332, +206.230087 
1488856186.604031, 1488856186.604031, -1.725952, -0.202881, -0.187500, -60.100441, +122.396332, +206.230087 
1488856186.607985, 1488856186.607985, -1.725952, -0.202881, -0.187500, -60.100441, +122.396332, +206.230087 
1488856186.611934, 1488856186.611934, -1.725952, -0.202881, -0.187500, -70.567970, +122.838837, +201.911850 
1488856186.615894, 1488856186.615894, -1.725952, -0.202881, -0.187500, -70.567970, +122.838837, +201.911850 
1488856186.619969, 1488856186.619969, -1.725952, -0.202881, -0.187500, -70.567970, +122.838837, +201.911850 
1488856186.624026, 1488856186.624026, -1.846069, -0.152710, -0.163696, -83.186989, +121.435028, +199.928207 
1488856186.627989, 1488856186.627989, -1.846069, -0.152710, -0.163696, -83.186989, +121.435028, +199.928207 
1488856186.631937, 1488856186.631937, -1.846069, -0.152710, -0.163696, -83.186989, +117.528778, +197.425766 
1488856186.635760, 1488856186.635760, -1.846069, -0.152710, -0.163696, -94.493752, +116.063934, +197.425766 
1488856186.639622, 1488856186.639622, -1.846069, -0.152710, -0.163696, -94.493752, +116.063934, +197.425766 
1488856186.643402, 1488856186.643402, -1.841919, -0.288574, -0.211182, -100.520973, +105.977875, +194.648666 
1488856186.647342, 1488856186.647342, -1.841919, -0.288574, -0.211182, -100.520973, +105.977875, +194.648666 
1488856186.651291, 1488856186.651291, -1.841919, -0.288574, -0.211182, -100.520973, +105.977875, +194.648666 
1488856186.655178, 1488856186.655178, -1.841919, -0.288574, -0.211182, -95.546608, +93.862396, +191.123886 
1488856186.658930, 1488856186.658930, -1.841919, -0.288574, -0.211182, -95.546608, +93.862396, +191.123886 
1488856186.662683, 1488856186.662683, -1.812256, -0.522095, -0.225220, -95.546608, +93.862396, +191.123886 
1488856186.666437, 1488856186.666437, -1.812256, -0.522095, -0.225220, -79.646950, +84.325653, +187.095566 
1488856186.670194, 1488856186.670194, -1.812256, -0.522095, -0.225220, -79.646950, +84.325653, +187.095566 
1488856186.674077, 1488856186.674077, -1.812256, -0.522095, -0.225220, -79.646950, +84.325653, +187.095566 
1488856186.677828, 1488856186.677828, -1.812256, -0.522095, -0.225220, -61.641579, +75.689178, +178.962631 
1488856186.681587, 1488856186.681587, -1.798706, -0.579102, -0.302124, -61.641579, +75.689178, +178.962631 
1488856186.685490, 1488856186.685490, -1.798706, -0.579102, -0.302124, -61.641579, +75.689178, +178.962631 
1488856186.689245, 1488856186.689245, -1.798706, -0.579102, -0.302124, -49.144630, +69.707733, +164.588852 
1488856186.693038, 1488856186.693038, -1.798706, -0.579102, -0.302124, -49.144630, +69.707733, +164.588852 
1488856186.696987, 1488856186.696987, -1.798706, -0.579102, -0.302124, -49.144630, +69.707733, +144.706650 
1488856186.700930, 1488856186.700930, -1.798706, -0.823486, -0.223145, -42.201881, +67.022186, +144.706650 
1488856186.704894, 1488856186.704894, -1.638794, -0.823486, -0.223145, -42.201881, +67.022186, +144.706650 
1488856186.708841, 1488856186.708841, -1.638794, -0.823486, -0.223145, -31.368141, +63.741550, +120.262070 
1488856186.712786, 1488856186.712786, -1.638794, -0.823486, -0.223145, -31.368141, +63.741550, +120.262070 
1488856186.716556, 1488856186.716556, -1.638794, -0.823486, -0.223145, -31.368141, +63.741550, +120.262070 
1488856186.720308, 1488856186.720308, -1.638794, -0.823486, +0.036377, -9.410744, +53.701267, +93.009872 
1488856186.724197, 1488856186.724197, -1.637817, -1.037842, +0.036377, -9.410744, +53.701267, +93.009872 
1488856186.727944, 1488856186.727944, -1.637817, -1.037842, +0.036377, -9.410744, +53.701267, +93.009872 
1488856186.731694, 1488856186.731694, -1.637817, -1.037842, +0.036377, +14.454002, +37.114964, +64.765854 
1488856186.735660, 1488856186.735660, -1.637817, -1.037842, +0.036377, +14.454002, +37.114964, +64.765854 
1488856186.739626, 1488856186.739626, -1.637817, -1.037842, +0.036377, +14.454002, +37.114964, +64.765854 
1488856186.743989, 1488856186.743989, -1.581055, -0.832520, +0.186279, +28.095360, +18.453465, +35.942001 
1488856186.747939, 1488856186.747939, -1.581055, -0.832520, +0.186279, +28.095360, +18.453465, +35.942001 
1488856186.752509, 1488856186.752509, -1.581055, -0.832520, +0.186279, +24.768944, -0.452175, +2.967759 
1488856186.756252, 1488856186.756252, -1.581055, -0.832520, +0.186279, +24.768944, -0.452175, +2.967759 
1488856186.759990, 1488856186.759990, -1.581055, -0.832520, +0.213623, +24.768944, -0.452175, +2.967759 
1488856186.763736, 1488856186.763736, -1.539795, -0.707886, +0.213623, +11.234398, -16.901150, -31.364517 
1488856186.768151, 1488856186.768151, -1.539795, -0.707886, +0.213623, +11.234398, -16.901150, -31.364517 
1488856186.771895, 1488856186.771895, -1.539795, -0.707886, +0.213623, +11.234398, -16.901150, -31.364517 
1488856186.775728, 1488856186.775728, -1.539795, -0.707886, +0.213623, -3.688698, -30.466213, -65.757828 
1488856186.779476, 1488856186.779476, -1.539795, -0.707886, +0.213623, -3.688698, -30.466213, -65.757828 
1488856186.783275, 1488856186.783275, -1.494873, -0.570679, +0.084229, -3.688698, -30.466213, -65.757828 
1488856186.787148, 1488856186.787148, -1.494873, -0.570679, +0.084229, -17.101173, -41.879787, -97.602921 
1488856186.790901, 1488856186.790901, -1.494873, -0.570679, +0.084229, -17.101173, -41.879787, -97.602921 
1488856186.794746, 1488856186.794746, -1.494873, -0.570679, +0.084229, -17.101173, -41.879787, -124.946671 
1488856186.798698, 1488856186.798698, -1.494873, -0.570679, +0.084229, -27.034645, -47.922268, -122.490005 
1488856186.802649, 1488856186.802649, -1.087402, +0.943604, -0.713623, -27.034645, -47.922268, -122.490005 
1488856186.806438, 1488856186.806438, -1.087402, +0.943604, -0.713623, -27.034645, -41.498318, -124.443130 
1488856186.810185, 1488856186.810185, -1.087402, +0.943604, -0.713623, -55.995827, -41.498318, -124.443130 
1488856186.814037, 1488856186.814037, -1.087402, +0.943604, -0.713623, -55.995827, -41.498318, -124.443130 
1488856186.817802, 1488856186.817802, -1.087402, +0.943604, -0.713623, -82.149391, -29.337063, -87.059097 
1488856186.821553, 1488856186.821553, -0.253662, +2.990112, -0.964111, -82.149391, -29.337063, -87.059097 
1488856186.825455, 1488856186.825455, -0.253662, +2.990112, -0.964111, -82.149391, -29.337063, -87.059097 
1488856186.829398, 1488856186.829398, -0.253662, +2.990112, -0.964111, -16.124611, -3.793850, -32.402115 
1488856186.833354, 1488856186.833354, -0.253662, +2.990112, -0.964111, -16.124611, -3.793850, -32.402115 
1488856186.837292, 1488856186.837292, -0.253662, +2.990112, -0.964111, -16.124611, -3.793850, -32.402115 
1488856186.841239, 1488856186.841239, -1.809692, -0.531738, +0.500488, +18.558617, +7.207737, -29.060440 
1488856186.845194, 1488856186.845194, -1.809692, -0.531738, +0.500488, +18.558617, +7.207737, -29.060440 
1488856186.849142, 1488856186.849142, -1.809692, -0.531738, +0.500488, +18.558617, +7.207737, -72.029190 
1488856186.853097, 1488856186.853097, -1.809692, -0.531738, +0.500488, -36.144142, -18.915310, -70.991592 
1488856186.856842, 1488856186.856842, -1.809692, -0.531738, +0.500488, -36.144142, -18.915310, -70.991592 
1488856186.860599, 1488856186.860599, -1.565186, +0.110962, -0.195068, -36.144142, -26.727810, -100.410538 
1488856186.864357, 1488856186.864357, -1.565186, +0.110962, -0.195068, -62.114601, -28.116360, -100.410538 
1488856186.868116, 1488856186.868116, -1.565186, +0.110962, -0.195068, -62.114601, -28.116360, -100.410538 
1488856186.871871, 1488856186.871871, -1.565186, +0.110962, -0.195068, -66.020851, -18.594875, -98.548965 
1488856186.875780, 1488856186.875780, -1.565186, +0.110962, -0.195068, -66.036110, -18.594875, -98.548965 
1488856186.879899, 1488856186.879899, -1.346436, -0.226562, -0.590576, -66.036110, -18.594875, -98.548965 
1488856186.884638, 1488856186.884638, -1.359253, -0.226562, -0.590576, -49.144630, -4.861965, -95.909195 
1488856186.888385, 1488856186.888385, -1.359253, -0.226562, -0.590576, -49.144630, -4.861965, -95.909195 
1488856186.892123, 1488856186.892123, -1.359253, -0.226562, -0.590576, -49.144630, -4.861965, -95.909195 
1488856186.895877, 1488856186.895877, -1.359253, -0.226562, -0.590576, -41.194801, +2.935276, -106.269913 
1488856186.902331, 1488856186.902331, -1.332520, +0.205322, -0.663940, -41.194801, +2.935276, -106.269913 
1488856186.906144, 1488856186.906144, -1.332520, +0.205322, -0.663940, -38.982277, -7.288113, -110.908585 
1488856186.909892, 1488856186.909892, -1.332520, +0.205322, -0.663940, -38.982277, -7.288113, -110.908585 
1488856186.913697, 1488856186.913697, -1.332520, +0.205322, -0.663940, -38.982277, -7.288113, -110.908585 
1488856186.917448, 1488856186.917448, -1.332520, +0.205322, -0.663940, -24.623756, -23.065701, -104.728775 
1488856186.921199, 1488856186.921199, -1.086182, -0.314331, -0.558105, -24.623756, -23.065701, -104.728775 
1488856186.925015, 1488856186.925015, -1.086182, -0.314331, -0.558105, -24.623756, -23.065701, -104.728775 
1488856186.928765, 1488856186.928765, -1.086182, -0.314331, -0.558105, +8.884544, -24.835720, -94.215469 
1488856186.932508, 1488856186.932508, -1.086182, -0.314331, -0.558105, +8.884544, -24.835720, -94.215469 
1488856186.936393, 1488856186.936393, -1.086182, -0.314331, -0.558105, +8.884544, -24.835720, -78.590469 
1488856186.940131, 1488856186.940131, -1.036621, -0.316895, -0.413940, +54.203148, -25.964870, -81.916885 
1488856186.944024, 1488856186.944024, -1.036621, -0.316895, -0.413940, +54.203148, -25.964870, -81.916885 
1488856186.947776, 1488856186.947776, -1.036621, -0.316895, -0.413940, +54.203148, -29.871120, -68.306046 
1488856186.951532, 1488856186.951532, -1.036621, -0.316895, -0.413940, +90.427513, -30.344143, -68.306046 
1488856186.955380, 1488856186.955380, -1.036621, -0.316895, -0.413940, +90.427513, -30.344143, -68.306046 
1488856186.959129, 1488856186.959129, -1.036621, +0.322998, -0.354126, +91.907616, -30.817165, -58.830338 
1488856186.962884, 1488856186.962884, -1.052734, +0.322998, -0.354126, +91.907616, -30.817165, -58.830338 
1488856186.966830, 1488856186.966830, -1.052734, +0.322998, -0.354126, +91.907616, -30.817165, -58.830338 
1488856186.970777, 1488856186.970777, -1.052734, +0.322998, -0.354126, +71.613426, -31.595364, -57.960587 
1488856186.974735, 1488856186.974735, -1.052734, +0.322998, -0.354126, +71.613426, -31.595364, -57.960587 
1488856186.978678, 1488856186.978678, -1.052734, +0.229248, -0.298462, +71.613426, -31.595364, -57.960587 
1488856186.982624, 1488856186.982624, -1.119019, +0.218872, -0.298462, +43.872948, -30.100002, -61.805801 
1488856186.986584, 1488856186.986584, -1.119019, +0.218872, -0.298462, +43.872948, -30.100002, -61.805801 
1488856186.990524, 1488856186.990524, -1.119019, +0.218872, -0.298462, +43.872948, -30.100002, -61.805801 
1488856186.994480, 1488856186.994480, -1.119019, +0.218872, -0.298462, +17.032738, -26.819363, -64.888077 
1488856186.998429, 1488856186.998429, -1.119019, +0.156372, -0.309204, +17.032738, -26.819363, -64.888077 
1488856187.002380, 1488856187.002380, -1.173218, +0.169067, -0.309204, +17.032738, -25.812283, -64.292984 
1488856187.006191, 1488856187.006191, -1.173218, +0.169067, -0.309204, +1.789207, -25.812283, -64.292984 
1488856187.009999, 1488856187.009999, -1.173218, +0.169067, -0.309204, +1.789207, -25.812283, -64.292984 
1488856187.013796, 1488856187.013796, -1.173218, +0.169067, -0.309204, +0.965233, -25.552883, -60.157852 
1488856187.017736, 1488856187.017736, -1.173218, +0.169067, -0.309204, +0.965233, -25.552883, -60.157852 
1488856187.021675, 1488856187.021675, -1.162354, -0.063721, -0.300781, +0.965233, -25.552883, -60.157852 
1488856187.025624, 1488856187.025624, -1.162354, -0.063721, -0.300781, +7.053490, -25.003567, -54.557877 
1488856187.029562, 1488856187.029562, -1.162354, -0.063721, -0.300781, +7.053490, -25.003567, -54.557877 
1488856187.033512, 1488856187.033512, -1.162354, -0.063721, -0.300781, +7.053490, -25.003567, -54.557877 
1488856187.037449, 1488856187.037449, -1.162354, -0.063721, -0.300781, +12.775536, -25.705471, -47.691422 
1488856187.041394, 1488856187.041394, -1.040283, -0.106323, -0.402344, +12.775536, -25.705471, -47.691422 
1488856187.045244, 1488856187.045244, -1.040283, -0.106323, -0.402344, +12.775536, -25.705471, -39.878922 
1488856187.048992, 1488856187.048992, -1.040283, -0.106323, -0.402344, +18.665428, -26.010647, -39.955215 
1488856187.052743, 1488856187.052743, -1.040283, -0.106323, -0.402344, +18.665428, -26.010647, -39.955215 
1488856187.056631, 1488856187.056631, -1.040283, -0.106323, -0.402344, +18.665428, -22.104397, -33.485489 
1488856187.060381, 1488856187.060381, -1.077393, -0.121338, -0.328979, +24.540062, -23.553982, -33.485489 
1488856187.064225, 1488856187.064225, -1.077393, -0.121338, -0.328979, +24.540062, -23.553982, -33.485489 
1488856187.068163, 1488856187.068163, -1.077393, -0.121338, -0.328979, +27.790184, -21.982327, -28.709488 
1488856187.072101, 1488856187.072101, -1.077393, -0.121338, -0.328979, +27.790184, -21.982327, -28.709488 
1488856187.076089, 1488856187.076089, -1.077393, -0.121338, -0.328979, +27.790184, -21.982327, -28.709488 
1488856187.080028, 1488856187.080028, -1.110229, -0.092285, -0.232178, +27.286644, -20.502224, -25.871353 
1488856187.084088, 1488856187.084088, -1.110229, -0.092285, -0.232178, +27.286644, -20.502224, -25.871353 
1488856187.088042, 1488856187.088042, -1.110229, -0.092285, -0.232178, +27.286644, -20.502224, -25.871353 
1488856187.091985, 1488856187.091985, -1.110229, -0.092285, -0.232178, +28.614159, -18.747463, -24.986343 
1488856187.095944, 1488856187.095944, -1.110229, -0.092285, -0.232178, +28.614159, -18.747463, -24.986343 
1488856187.099890, 1488856187.099890, -1.054810, +0.105469, -0.253540, +28.614159, -18.747463, -23.948746 
1488856187.103867, 1488856187.103867, -1.054810, +0.105469, -0.253540, +28.476830, -17.007961, -23.948746 
1488856187.107749, 1488856187.107749, -1.054810, +0.105469, -0.253540, +28.476830, -17.007961, -23.948746 
1488856187.111505, 1488856187.111505, -1.054810, +0.105469, -0.253540, +24.570580, -16.458645, -23.429947 
1488856187.115434, 1488856187.115434, -1.054810, +0.105469, -0.253540, +24.372215, -16.458645, -23.429947 
1488856187.119446, 1488856187.119446, -1.052246, +0.048828, -0.326294, +24.372215, -16.458645, -23.429947 
1488856187.123556, 1488856187.123556, -1.052246, +0.048828, -0.326294, +17.200584, -15.710964, -24.253922 
1488856187.127518, 1488856187.127518, -1.052246, +0.048828, -0.326294, +17.200584, -15.710964, -24.253922 
1488856187.131470, 1488856187.131470, -1.052246, +0.048828, -0.326294, +17.200584, -15.710964, -24.253922 
1488856187.135425, 1488856187.135425, -1.052246, +0.048828, -0.326294, +14.881248, -15.680447, -25.459366 
1488856187.139366, 1488856187.139366, -1.070557, -0.018188, -0.373169, +14.881248, -15.680447, -25.459366 
1488856187.143332, 1488856187.143332, -1.070557, -0.018188, -0.373169, +14.881248, -15.680447, -24.726944 
1488856187.147276, 1488856187.147276, -1.070557, -0.018188, -0.373169, +17.002220, -16.351833, -24.726944 
1488856187.151229, 1488856187.151229, -1.070557, -0.018188, -0.373169, +17.002220, -16.351833, -24.726944 
1488856187.155085, 1488856187.155085, -1.070557, -0.018188, -0.373169, +20.908470, -17.038479, -23.887711 
1488856187.158845, 1488856187.158845, -1.059937, -0.003906, -0.353882, +18.650169, -17.038479, -23.887711 
1488856187.162606, 1488856187.162606, -1.059937, -0.003906, -0.353882, +18.650169, -17.038479, -23.887711 
1488856187.166384, 1488856187.166384, -1.059937, -0.003906, -0.353882, +19.016380, -17.770901, -24.070816 
1488856187.170140, 1488856187.170140, -1.059937, -0.003906, -0.353882, +19.016380, -17.770901, -24.070816 
1488856187.173977, 1488856187.173977, -1.059937, -0.003906, -0.353882, +19.016380, -17.770901, -24.070816 
1488856187.177737, 1488856187.177737, -1.060425, +0.022461, -0.327881, +18.482323, -18.289700, -24.726944 
1488856187.181495, 1488856187.181495, -1.060425, +0.022461, -0.327881, +18.482323, -18.289700, -24.726944 
1488856187.185499, 1488856187.185499, -1.060425, +0.022461, -0.327881, +18.482323, -18.289700, -24.726944 
1488856187.189445, 1488856187.189445, -1.060425, +0.022461, -0.327881, +17.109032, -18.915310, -24.726944 
1488856187.193398, 1488856187.193398, -1.060425, +0.022461, -0.327881, +17.109032, -18.915310, -24.726944 
1488856187.197348, 1488856187.197348, -1.122925, -0.095093, -0.282349, +17.109032, -18.915310, -24.726944 
1488856187.201288, 1488856187.201288, -1.096313, -0.095093, -0.282349, +15.567894, -19.937649, -26.268082 
1488856187.205171, 1488856187.205171, -1.096313, -0.095093, -0.282349, +15.567894, -19.937649, -26.268082 
1488856187.208919, 1488856187.208919, -1.096313, -0.095093, -0.282349, +15.567894, -19.937649, -26.695328 
1488856187.212674, 1488856187.212674, -1.096313, -0.095093, -0.282349, +15.705223, -20.578518, -26.695328 
1488856187.216438, 1488856187.216438, -1.096313, -0.095093, -0.323608, +15.705223, -20.578518, -26.695328 
1488856187.220196, 1488856187.220196, -1.061523, -0.006226, -0.323608, +15.705223, -20.609035, -26.786880 
1488856187.224057, 1488856187.224057, -1.061523, -0.006226, -0.323608, +16.056175, -20.609035, -26.786880 
1488856187.227801, 1488856187.227801, -1.061523, -0.006226, -0.323608, +16.056175, -20.609035, -26.786880 
1488856187.231552, 1488856187.231552, -1.061523, -0.006226, -0.323608, +15.369530, -20.685329, -26.466446 
1488856187.235540, 1488856187.235540, -1.061523, -0.006226, -0.323608, +15.369530, -20.685329, -26.466446 
1488856187.239640, 1488856187.239640, -1.124268, -0.104980, -0.309204, +15.369530, -20.685329, -26.466446 
1488856187.243705, 1488856187.243705, -1.124268, -0.104980, -0.309204, +16.239281, -20.731106, -25.932388 
1488856187.247671, 1488856187.247671, -1.124268, -0.104980, -0.309204, +16.239281, -20.731106, -25.932388 
1488856187.251621, 1488856187.251621, -1.124268, -0.104980, -0.309204, +16.239281, -20.731106, -25.932388 
1488856187.255461, 1488856187.255461, -1.124268, -0.104980, -0.309204, +19.886131, -20.929470, -24.223404 
1488856187.259219, 1488856187.259219, -1.154907, -0.060425, -0.284180, +19.886131, -20.929470, -24.223404 
1488856187.263008, 1488856187.263008, -1.154907, -0.060425, -0.284180, +19.886131, -20.929470, -20.317154 
1488856187.266965, 1488856187.266965, -1.154907, -0.060425, -0.284180, +22.861595, -21.478786, -22.544937 
1488856187.270906, 1488856187.270906, -1.154907, -0.060425, -0.284180, +22.861595, -21.478786, -22.544937 
