Calculating the offsets...
timestamp_before, timestamp_after, accel_x, accel_y, accel_z, gyro_x, gyro_y, gyro_z
1488856230.365438, 1488856230.365438, -1.053101, +0.118042, -0.332031, +25.249971, -21.817652, -24.793266 
1488856230.378891, 1488856230.378891, -1.053101, +0.118042, -0.332031, +19.192232, -22.733179, -25.235771 
1488856230.383000, 1488856230.383000, -1.053101, +0.118042, -0.332031, +19.192232, -22.733179, -25.235771 
1488856230.386752, 1488856230.386752, -1.053101, +0.118042, -0.332031, +19.192232, -22.733179, -25.235771 
1488856230.390499, 1488856230.390499, -1.082031, -0.122803, -0.257812, +15.850557, -22.595850, -26.349663 
1488856230.394350, 1488856230.394350, -1.082031, -0.122803, -0.257812, +15.850557, -22.595850, -26.349663 
1488856230.398293, 1488856230.398293, -1.082031, -0.122803, -0.257812, +15.850557, -22.595850, -26.502251 
1488856230.402235, 1488856230.402235, -1.082031, -0.122803, -0.257812, +15.743746, -23.389307, -26.502251 
1488856230.406042, 1488856230.406042, -1.082031, -0.122803, -0.257812, +15.743746, -23.389307, -26.502251 
1488856230.409796, 1488856230.409796, -0.989014, -0.069458, -0.319458, +16.277803, -23.801294, -24.900078 
1488856230.413626, 1488856230.413626, -0.989014, -0.069458, -0.319458, +16.277803, -23.801294, -24.900078 
1488856230.417384, 1488856230.417384, -0.989014, -0.069458, -0.319458, +16.277803, -23.801294, -24.900078 
1488856230.421132, 1488856230.421132, -0.989014, -0.069458, -0.319458, +15.667452, -22.901026, -23.160576 
1488856230.425067, 1488856230.425067, -0.989014, -0.069458, -0.319458, +15.667452, -22.901026, -23.160576 
1488856230.428950, 1488856230.428950, -0.989014, -0.128174, -0.246948, +15.667452, -22.901026, -23.160576 
1488856230.432832, 1488856230.432832, -1.001343, -0.128174, -0.246948, +14.828218, -22.290674, -22.321342 
1488856230.436786, 1488856230.436786, -1.001343, -0.128174, -0.246948, +14.828218, -22.290674, -22.321342 
1488856230.440730, 1488856230.440730, -1.001343, -0.128174, -0.246948, +14.828218, -22.290674, -22.321342 
1488856230.444690, 1488856230.444690, -1.001343, -0.128174, -0.246948, +12.157930, -21.985498, -22.046684 
1488856230.448633, 1488856230.448633, -1.001343, -0.034424, -0.272949, +12.157930, -21.985498, -22.046684 
1488856230.452577, 1488856230.452577, -1.003540, -0.048950, -0.272949, +12.157930, -21.985498, -21.283745 
1488856230.456359, 1488856230.456359, -1.003540, -0.048950, -0.272949, +9.396090, -21.665064, -21.283745 
1488856230.460102, 1488856230.460102, -1.003540, -0.048950, -0.272949, +9.396090, -21.665064, -21.283745 
1488856230.463950, 1488856230.463950, -1.003540, -0.048950, -0.272949, +5.489840, -21.161524, -21.466850 
1488856230.467887, 1488856230.467887, -1.003540, -0.048950, -0.241699, +6.786837, -21.161524, -21.466850 
1488856230.471823, 1488856230.471823, -1.053223, -0.176514, -0.225952, +6.786837, -21.161524, -21.466850 
1488856230.475835, 1488856230.475835, -1.053223, -0.176514, -0.225952, +7.275118, -20.886866, -21.421074 
1488856230.479834, 1488856230.479834, -1.053223, -0.176514, -0.225952, +7.275118, -20.886866, -21.421074 
1488856230.483792, 1488856230.483792, -1.053223, -0.176514, -0.225952, +7.275118, -20.886866, -21.421074 
1488856230.487728, 1488856230.487728, -1.053223, -0.176514, -0.288452, +7.961763, -20.474878, -20.581841 
1488856230.491673, 1488856230.491673, -1.026978, -0.076050, -0.307251, +7.961763, -20.474878, -20.581841 
1488856230.495622, 1488856230.495622, -1.026978, -0.076050, -0.307251, +7.961763, -20.474878, -16.675591 
1488856230.499565, 1488856230.499565, -1.026978, -0.076050, -0.307251, +6.756319, -19.818750, -20.169853 
1488856230.503520, 1488856230.503520, -1.026978, -0.076050, -0.307251, +6.756319, -19.818750, -20.169853 
1488856230.507466, 1488856230.507466, -1.026978, -0.076050, -0.307251, +6.756319, -19.116846, -20.810722 
1488856230.511406, 1488856230.511406, -1.073608, -0.162964, -0.261597, +7.229342, -19.116846, -20.810722 
1488856230.515241, 1488856230.515241, -1.073608, -0.162964, -0.261597, +7.229342, -19.116846, -20.810722 
1488856230.518985, 1488856230.518985, -1.073608, -0.162964, -0.261597, +9.548677, -18.994776, -20.520805 
1488856230.522901, 1488856230.522901, -1.073608, -0.162964, -0.261597, +9.548677, -18.994776, -20.520805 
1488856230.526687, 1488856230.526687, -1.073608, -0.162964, -0.261597, +9.548677, -18.994776, -20.520805 
1488856230.530429, 1488856230.530429, -1.044189, -0.133423, -0.326172, +12.722506, -18.979517, -19.406914 
1488856230.534403, 1488856230.534403, -1.044189, -0.133423, -0.326172, +12.722506, -18.979517, -19.406914 
1488856230.538346, 1488856230.538346, -1.044189, -0.133423, -0.326172, +12.722506, -18.979517, -19.406914 
1488856230.542292, 1488856230.542292, -1.044189, -0.133423, -0.326172, +15.667452, -18.216578, -19.193291 
1488856230.546248, 1488856230.546248, -1.044189, -0.133423, -0.326172, +15.667452, -18.216578, -19.193291 
1488856230.550198, 1488856230.550198, -1.158447, -0.159668, -0.273071, +15.667452, -18.216578, -19.193291 
1488856230.554164, 1488856230.554164, -1.158447, -0.159668, -0.273071, +17.818941, -19.086329, -19.437431 
1488856230.558110, 1488856230.558110, -1.158447, -0.159668, -0.273071, +17.818941, -19.086329, -19.437431 
1488856230.562057, 1488856230.562057, -1.158447, -0.159668, -0.273071, +18.749727, -20.963160, -20.764946 
1488856230.565867, 1488856230.565867, -1.158447, -0.159668, -0.273071, +18.749727, -20.963160, -20.764946 
1488856230.569617, 1488856230.569617, -1.150024, -0.045898, -0.307373, +18.749727, -20.963160, -20.764946 
1488856230.573388, 1488856230.573388, -1.150024, -0.045898, -0.307373, +20.168795, -22.794214, -22.428154 
1488856230.577332, 1488856230.577332, -1.150024, -0.045898, -0.307373, +20.168795, -22.794214, -22.428154 
1488856230.581277, 1488856230.581277, -1.150024, -0.045898, -0.307373, +20.168795, -22.794214, -22.428154 
1488856230.585231, 1488856230.585231, -1.150024, -0.045898, -0.307373, +19.649996, -24.503199, -24.625420 
1488856230.589178, 1488856230.589178, -1.172974, -0.057007, -0.265381, +19.649996, -24.503199, -24.625420 
1488856230.593128, 1488856230.593128, -1.172974, -0.057007, -0.265381, +19.649996, -24.503199, -24.625420 
1488856230.597081, 1488856230.597081, -1.172974, -0.057007, -0.265381, +18.459810, -27.493921, -27.112602 
1488856230.601032, 1488856230.601032, -1.172974, -0.057007, -0.265381, +18.459810, -27.493921, -27.112602 
1488856230.605000, 1488856230.605000, -1.172974, -0.057007, -0.265381, +18.459810, -27.493921, -30.362724 
1488856230.608946, 1488856230.608946, -1.125977, -0.004761, -0.366089, +17.483248, -30.774561, -30.362724 
1488856230.612894, 1488856230.612894, -1.125977, -0.004761, -0.366089, +17.483248, -30.774561, -30.362724 
1488856230.616646, 1488856230.616646, -1.125977, -0.004761, -0.366089, +14.721407, -33.017601, -33.124565 
1488856230.620400, 1488856230.620400, -1.125977, -0.004761, -0.366089, +14.721407, -33.017601, -33.124565 
1488856230.624223, 1488856230.624223, -1.125977, -0.004761, -0.366089, +14.721407, -33.017601, -33.124565 
1488856230.628171, 1488856230.628171, -1.171753, -0.126221, -0.439819, +13.439669, -35.077538, -36.237358 
1488856230.632122, 1488856230.632122, -1.171753, -0.126221, -0.439819, +13.439669, -35.077538, -36.237358 
1488856230.636115, 1488856230.636115, -1.171753, -0.126221, -0.439819, +13.439669, -35.077538, -36.237358 
1488856230.640059, 1488856230.640059, -1.171753, -0.126221, -0.439819, +13.348116, -37.381615, -38.663506 
1488856230.644012, 1488856230.644012, -1.171753, -0.126221, -0.439819, +13.348116, -37.381615, -38.663506 
1488856230.647958, 1488856230.647958, -1.161255, -0.142944, -0.462036, +13.348116, -37.381615, -38.663506 
1488856230.651902, 1488856230.651902, -1.161255, -0.142944, -0.462036, +15.499605, -38.571800, -40.158867 
1488856230.655899, 1488856230.655899, -1.161255, -0.142944, -0.462036, +15.499605, -38.571800, -40.158867 
1488856230.659847, 1488856230.659847, -1.161255, -0.142944, -0.462036, +19.405855, -40.265526, -41.486382 
1488856230.663850, 1488856230.663850, -1.161255, -0.142944, -0.462036, +17.498507, -40.265526, -41.486382 
1488856230.667600, 1488856230.667600, -1.213867, -0.171509, -0.372192, +17.498507, -40.265526, -41.486382 
1488856230.671561, 1488856230.671561, -1.213867, -0.171509, -0.372192, +20.702852, -42.645897, -42.646049 
1488856230.675839, 1488856230.675839, -1.213867, -0.171509, -0.372192, +20.702852, -42.645897, -42.646049 
1488856230.679781, 1488856230.679781, -1.213867, -0.171509, -0.372192, +20.702852, -42.645897, -42.646049 
1488856230.683741, 1488856230.683741, -1.213867, -0.171509, -0.372192, +24.395479, -44.888939, -44.171928 
1488856230.687686, 1488856230.687686, -1.254517, -0.142456, -0.361084, +24.395479, -44.888939, -44.171928 
1488856230.691627, 1488856230.691627, -1.254517, -0.142456, -0.361084, +24.395479, -44.888939, -44.171928 
1488856230.695584, 1488856230.695584, -1.254517, -0.142456, -0.361084, +27.508272, -47.376122, -45.865654 
1488856230.699524, 1488856230.699524, -1.254517, -0.142456, -0.361084, +27.508272, -47.376122, -45.865654 
1488856230.703457, 1488856230.703457, -1.254517, -0.142456, -0.361084, +35.320770, -49.207176, -47.742485 
1488856230.707210, 1488856230.707210, -1.314941, -0.115356, -0.281372, +31.734957, -49.207176, -47.742485 
1488856230.710960, 1488856230.710960, -1.314941, -0.115356, -0.281372, +31.734957, -49.207176, -47.742485 
1488856230.714715, 1488856230.714715, -1.314941, -0.115356, -0.281372, +34.161102, -52.197899, -50.305962 
1488856230.718465, 1488856230.718465, -1.314941, -0.115356, -0.281372, +34.161102, -52.197899, -50.305962 
1488856230.722212, 1488856230.722212, -1.314941, -0.115356, -0.281372, +34.161102, -52.197899, -50.305962 
1488856230.726097, 1488856230.726097, -1.314941, -0.115356, -0.271729, +35.915863, -55.509056, -52.426933 
1488856230.729843, 1488856230.729843, -1.311279, -0.049805, -0.271729, +35.915863, -55.509056, -52.426933 
1488856230.733782, 1488856230.733782, -1.311279, -0.049805, -0.271729, +35.915863, -55.509056, -52.426933 
1488856230.737724, 1488856230.737724, -1.311279, -0.049805, -0.271729, +38.067352, -57.843651, -55.051445 
1488856230.741667, 1488856230.741667, -1.311279, -0.049805, -0.271729, +38.067352, -57.843651, -55.051445 
1488856230.745611, 1488856230.745611, -1.311279, -0.049805, -0.271729, +38.067352, -57.843651, -55.051445 
1488856230.749553, 1488856230.749553, -1.328247, +0.082642, -0.213257, +42.553436, -60.773338, -57.202934 
1488856230.753507, 1488856230.753507, -1.328247, +0.082642, -0.213257, +42.553436, -60.773338, -57.202934 
1488856230.757446, 1488856230.757446, -1.328247, +0.082642, -0.213257, +42.553436, -60.773338, -61.124443 
1488856230.761385, 1488856230.761385, -1.328247, +0.082642, -0.213257, +39.486420, -65.579857, -61.124443 
1488856230.765339, 1488856230.765339, -1.328247, +0.082642, -0.213257, +39.486420, -65.579857, -61.124443 
1488856230.769281, 1488856230.769281, -1.426025, +0.104980, -0.381714, +34.573090, -69.547142, -68.235039 
1488856230.773267, 1488856230.773267, -1.426025, +0.104980, -0.381714, +34.573090, -69.547142, -68.235039 
1488856230.777214, 1488856230.777214, -1.426025, +0.104980, -0.381714, +34.573090, -69.547142, -68.235039 
1488856230.781167, 1488856230.781167, -1.426025, +0.104980, -0.381714, +34.924042, -72.568382, -74.460625 
1488856230.785120, 1488856230.785120, -1.426025, +0.104980, -0.381714, +34.924042, -72.568382, -74.460625 
1488856230.789088, 1488856230.789088, -1.463989, +0.130371, -0.383423, +34.924042, -72.568382, -74.460625 
1488856230.793085, 1488856230.793085, -1.463989, +0.130371, -0.383423, +39.791595, -75.665916, -77.436089 
1488856230.797030, 1488856230.797030, -1.463989, +0.130371, -0.383423, +39.791595, -75.665916, -77.436089 
1488856230.800975, 1488856230.800975, -1.463989, +0.130371, -0.383423, +39.791595, -75.665916, -81.357597 
1488856230.804939, 1488856230.804939, -1.463989, +0.130371, -0.383423, +48.351776, -78.748192, -81.357597 
1488856230.808882, 1488856230.808882, -1.635742, +0.120728, -0.520630, +48.351776, -78.748192, -81.357597 
1488856230.812829, 1488856230.812829, -1.635742, +0.120728, -0.520630, +62.969696, -81.281151, -85.111259 
1488856230.816608, 1488856230.816608, -1.635742, +0.120728, -0.520630, +62.969696, -81.281151, -85.111259 
1488856230.820467, 1488856230.820467, -1.635742, +0.120728, -0.520630, +62.969696, -81.281151, -85.111259 
1488856230.824267, 1488856230.824267, -1.635742, +0.120728, -0.520630, +80.822479, -82.135643, -86.713432 
1488856230.828023, 1488856230.828023, -1.766357, +0.360229, -0.553589, +80.822479, -82.135643, -86.713432 
1488856230.831775, 1488856230.831775, -1.766357, +0.360229, -0.553589, +80.822479, -82.135643, -86.713432 
1488856230.835678, 1488856230.835678, -1.766357, +0.360229, -0.553589, +97.576630, -83.478416, -86.835503 
1488856230.839431, 1488856230.839431, -1.766357, +0.360229, -0.553589, +97.576630, -83.478416, -86.835503 
1488856230.843360, 1488856230.843360, -1.766357, +0.360229, -0.553589, +97.576630, -83.478416, -86.835503 
1488856230.847305, 1488856230.847305, -1.728271, +0.280762, -0.511719, +105.709564, -83.859886, -87.430595 
1488856230.851288, 1488856230.851288, -1.728271, +0.280762, -0.511719, +105.709564, -83.859886, -87.430595 
1488856230.855142, 1488856230.855142, -1.728271, +0.280762, -0.511719, +105.709564, -83.859886, -91.336845 
1488856230.859023, 1488856230.859023, -1.728271, +0.280762, -0.511719, +95.821869, -84.561790, -90.818047 
1488856230.863658, 1488856230.863658, -1.728271, +0.280762, -0.511719, +95.821869, -84.561790, -90.818047 
1488856230.867401, 1488856230.867401, -1.784668, +0.080078, -0.506958, +74.612152, -87.811913, -94.617485 
1488856230.871146, 1488856230.871146, -1.784668, +0.080078, -0.506958, +74.612152, -87.811913, -94.617485 
1488856230.875003, 1488856230.875003, -1.784668, +0.080078, -0.506958, +74.612152, -87.811913, -94.617485 
1488856230.878755, 1488856230.878755, -1.784668, +0.080078, -0.506958, +52.303802, -93.762840, -94.815849 
1488856230.882495, 1488856230.882495, -1.784668, +0.080078, -0.506958, +52.303802, -93.762840, -94.815849 
1488856230.886252, 1488856230.886252, -1.394531, -0.063721, -0.631470, +52.303802, -93.762840, -94.815849 
1488856230.889991, 1488856230.889991, -1.394531, -0.063721, -0.631470, +33.688080, -92.862572, -92.252373 
1488856230.893739, 1488856230.893739, -1.394531, -0.063721, -0.631470, +33.688080, -92.862572, -92.252373 
1488856230.897482, 1488856230.897482, -1.394531, -0.063721, -0.631470, +33.688080, -92.862572, -92.252373 
1488856230.901222, 1488856230.901222, -1.394531, -0.063721, -0.631470, +19.924654, -84.393944, -88.101982 
1488856230.905026, 1488856230.905026, -1.394531, -0.438721, -0.318237, +19.924654, -84.393944, -88.101982 
1488856230.908765, 1488856230.908765, -1.093628, -0.457153, -0.318237, +19.924654, -84.393944, -88.101982 
1488856230.912508, 1488856230.912508, -1.093628, -0.457153, -0.318237, +9.960665, -75.147118, -83.112358 
1488856230.916288, 1488856230.916288, -1.093628, -0.457153, -0.318237, +9.960665, -75.147118, -83.112358 
1488856230.920027, 1488856230.920027, -1.093628, -0.457153, -0.318237, +9.960665, -75.147118, -83.112358 
1488856230.923796, 1488856230.923796, -1.093628, -0.457153, -0.318237, +21.236910, -63.168968, -76.612114 
1488856230.927542, 1488856230.927542, -0.664917, -1.026855, -0.202271, +21.236910, -63.168968, -76.612114 
1488856230.931289, 1488856230.931289, -0.664917, -1.026855, -0.202271, +21.236910, -63.168968, -76.612114 
1488856230.935035, 1488856230.935035, -0.664917, -1.026855, -0.202271, +46.200287, -39.990868, -63.001274 
1488856230.938776, 1488856230.938776, -0.664917, -1.026855, -0.202271, +46.200287, -39.990868, -63.001274 
1488856230.942514, 1488856230.942514, -0.664917, -1.026855, -0.202271, +46.200287, -39.990868, -42.081474 
1488856230.946271, 1488856230.946271, -0.562378, -0.236694, -0.467407, +78.884613, -24.213282, -42.081474 
1488856230.950018, 1488856230.950018, -0.562378, -0.236694, -0.467407, +78.884613, -24.213282, -42.081474 
1488856230.953813, 1488856230.953813, -0.562378, -0.236694, -0.467407, +78.884613, -17.941919, -21.207451 
1488856230.957761, 1488856230.957761, -0.562378, -0.236694, -0.467407, +89.855682, -17.941919, -21.207451 
1488856230.961706, 1488856230.961706, -0.562378, -0.236694, -0.467407, +89.855682, -17.941919, -21.207451 
1488856230.965695, 1488856230.965695, -0.137451, +0.627441, -0.398804, +81.875336, -10.327784, -0.928520 
1488856230.969748, 1488856230.969748, -0.137451, +0.627441, -0.398804, +81.875336, -10.327784, -0.928520 
1488856230.973713, 1488856230.973713, -0.137451, +0.627441, -0.398804, +81.875336, -10.327784, -0.928520 
1488856230.977659, 1488856230.977659, -0.137451, +0.627441, -0.398804, +79.983246, +0.414404, +23.302437 
1488856230.981682, 1488856230.981682, -0.137451, +0.627441, -0.398804, +79.983246, +0.414404, +23.302437 
1488856230.985634, 1488856230.985634, -0.132812, +0.399414, +0.043945, +79.983246, +0.414404, +23.302437 
1488856230.989576, 1488856230.989576, -0.132812, +0.399414, +0.043945, +69.866669, +8.959326, +41.704536 
1488856230.993516, 1488856230.993516, -0.132812, +0.399414, +0.043945, +69.866669, +8.959326, +41.704536 
1488856230.997261, 1488856230.997261, -0.132812, +0.399414, +0.043945, +69.866669, +20.678076, +53.728462 
1488856231.001013, 1488856231.001013, -0.132812, +0.399414, +0.043945, +51.556122, +19.701513, +53.728462 
1488856231.004904, 1488856231.004904, -0.275757, +0.141846, -0.022949, +51.556122, +19.701513, +53.728462 
1488856231.008848, 1488856231.008848, -0.275757, +0.141846, -0.022949, +40.279877, +35.173927, +67.049385 
1488856231.012800, 1488856231.012800, -0.275757, +0.141846, -0.022949, +40.279877, +35.173927, +67.049385 
1488856231.016564, 1488856231.016564, -0.275757, +0.141846, -0.022949, +40.279877, +35.173927, +67.049385 
1488856231.020322, 1488856231.020322, -0.275757, +0.141846, -0.022949, +28.316988, +49.929176, +84.688545 
1488856231.024175, 1488856231.024175, -0.275757, +0.329346, -0.122314, +28.316988, +49.929176, +84.688545 
1488856231.027933, 1488856231.027933, -0.372070, +0.330566, -0.122314, +28.316988, +49.929176, +84.688545 
1488856231.031688, 1488856231.031688, -0.372070, +0.330566, -0.122314, +21.542086, +63.814674, +100.603462 
1488856231.035684, 1488856231.035684, -0.372070, +0.330566, -0.122314, +21.542086, +63.814674, +100.603462 
1488856231.039627, 1488856231.039627, -0.372070, +0.330566, -0.122314, +21.542086, +63.814674, +100.603462 
1488856231.043573, 1488856231.043573, -0.372070, +0.330566, -0.059814, +6.176485, +77.211891, +113.787056 
1488856231.047326, 1488856231.047326, -0.412231, +0.652466, -0.042114, +6.176485, +77.211891, +113.787056 
1488856231.051075, 1488856231.051075, -0.412231, +0.652466, -0.042114, +6.176485, +77.211891, +121.599556 
1488856231.054940, 1488856231.054940, -0.412231, +0.652466, -0.042114, -28.628813, +92.730080, +121.065498 
1488856231.058900, 1488856231.058900, -0.412231, +0.652466, -0.042114, -28.628813, +92.730080, +121.065498 
1488856231.062658, 1488856231.062658, -0.412231, +0.652466, -0.042114, -71.597565, +111.437355, +121.614815 
1488856231.066668, 1488856231.066668, -0.644043, +0.426392, +0.157349, -70.437897, +111.437355, +121.614815 
1488856231.070678, 1488856231.070678, -0.644043, +0.426392, +0.157349, -70.437897, +111.437355, +121.614815 
1488856231.075005, 1488856231.075005, -0.644043, +0.426392, +0.157349, -95.675934, +123.858009, +123.674751 
1488856231.078948, 1488856231.078948, -0.644043, +0.426392, +0.157349, -95.675934, +123.858009, +123.674751 
1488856231.082890, 1488856231.082890, -0.644043, +0.426392, +0.157349, -95.675934, +123.858009, +123.674751 
1488856231.086840, 1488856231.086840, -0.921997, -0.070190, -0.125488, -84.582794, +121.035133, +132.494324 
1488856231.090793, 1488856231.090793, -0.921997, -0.070190, -0.125488, -84.582794, +121.035133, +132.494324 
1488856231.094673, 1488856231.094673, -0.921997, -0.070190, -0.125488, -84.582794, +121.035133, +144.213074 
1488856231.098423, 1488856231.098423, -0.921997, -0.070190, -0.125488, -71.719635, +112.871681, +146.334045 
1488856231.102175, 1488856231.102175, -0.921997, -0.070190, -0.125488, -71.719635, +112.871681, +146.334045 
1488856231.105970, 1488856231.105970, -1.144287, +0.107056, -0.025635, -71.719635, +112.871681, +159.914368 
1488856231.109718, 1488856231.109718, -1.144287, +0.107056, -0.025635, -76.251495, +108.156715, +159.914368 
1488856231.113503, 1488856231.113503, -1.144287, +0.107056, -0.025635, -76.251495, +108.156715, +159.914368 
1488856231.117362, 1488856231.117362, -1.144287, +0.107056, -0.025635, -87.970245, +109.545265, +172.991150 
1488856231.121117, 1488856231.121117, -1.144287, +0.107056, -0.025635, -86.337555, +109.545265, +172.991150 
1488856231.124974, 1488856231.124974, -1.158081, -0.159302, -0.174683, -86.337555, +109.545265, +172.991150 
1488856231.128730, 1488856231.128730, -1.158081, -0.159302, -0.174683, -89.328278, +115.252052, +184.023254 
1488856231.132481, 1488856231.132481, -1.158081, -0.159302, -0.174683, -89.328278, +115.252052, +184.023254 
1488856231.136610, 1488856231.136610, -1.158081, -0.159302, -0.174683, -89.328278, +115.252052, +184.023254 
1488856231.140554, 1488856231.140554, -1.158081, -0.159302, -0.174683, -80.249298, +117.449318, +192.720764 
1488856231.144448, 1488856231.144448, -1.287598, -0.170166, -0.248047, -80.249298, +117.449318, +192.720764 
1488856231.148200, 1488856231.148200, -1.287598, -0.170166, -0.248047, -80.249298, +117.449318, +192.720764 
1488856231.151954, 1488856231.151954, -1.287598, -0.170166, -0.248047, -70.056427, +115.099464, +198.397034 
1488856231.155895, 1488856231.155895, -1.287598, -0.170166, -0.248047, -70.056427, +115.099464, +198.397034 
1488856231.159839, 1488856231.159839, -1.287598, -0.170166, -0.248047, -70.056427, +115.099464, +198.397034 
1488856231.163764, 1488856231.163764, -1.449707, -0.228760, -0.210693, -63.479889, +113.283669, +201.921814 
1488856231.167508, 1488856231.167508, -1.449707, -0.228760, -0.210693, -63.479889, +113.283669, +201.921814 
1488856231.171255, 1488856231.171255, -1.449707, -0.228760, -0.210693, -63.479889, +113.283669, +203.798645 
1488856231.175147, 1488856231.175147, -1.449707, -0.228760, -0.210693, -61.252106, +112.169777, +203.798645 
1488856231.179092, 1488856231.179092, -1.449707, -0.228760, -0.210693, -61.252106, +112.169777, +203.798645 
1488856231.183044, 1488856231.183044, -1.449707, -0.195312, -0.144897, -64.990509, +112.154518, +203.417175 
1488856231.186791, 1488856231.186791, -1.633423, -0.195312, -0.144897, -64.990509, +112.154518, +203.417175 
1488856231.190711, 1488856231.190711, -1.633423, -0.195312, -0.144897, -64.990509, +112.154518, +203.417175 
1488856231.194762, 1488856231.194762, -1.633423, -0.195312, -0.144897, -74.847687, +111.879860, +200.685852 
1488856231.198712, 1488856231.198712, -1.633423, -0.195312, -0.144897, -74.847687, +111.879860, +200.685852 
1488856231.202655, 1488856231.202655, -1.633423, -0.289062, -0.116943, -74.847687, +111.879860, +200.685852 
1488856231.206614, 1488856231.206614, -1.710815, -0.295776, -0.116943, -86.474884, +109.423195, +195.024841 
1488856231.210560, 1488856231.210560, -1.710815, -0.295776, -0.116943, -86.474884, +109.423195, +195.024841 
1488856231.214514, 1488856231.214514, -1.710815, -0.295776, -0.116943, -86.474884, +109.423195, +187.212341 
1488856231.218456, 1488856231.218456, -1.710815, -0.295776, -0.116943, -93.554962, +105.608498, +188.951843 
1488856231.222399, 1488856231.222399, -1.710815, -0.295776, -0.199219, -93.554962, +105.608498, +188.951843 
1488856231.226194, 1488856231.226194, -1.675415, -0.245117, -0.199219, -93.554962, +101.427589, +185.243958 
1488856231.229945, 1488856231.229945, -1.675415, -0.245117, -0.199219, -96.820343, +101.427589, +185.243958 
1488856231.233698, 1488856231.233698, -1.675415, -0.245117, -0.199219, -96.820343, +101.427589, +185.243958 
1488856231.237442, 1488856231.237442, -1.675415, -0.245117, -0.199219, -99.078644, +95.613991, +182.726257 
1488856231.241197, 1488856231.241197, -1.675415, -0.245117, -0.199219, -99.078644, +95.613991, +182.726257 
1488856231.245122, 1488856231.245122, -1.648926, -0.204712, -0.238403, -99.078644, +95.613991, +182.726257 
1488856231.248868, 1488856231.248868, -1.648926, -0.204712, -0.238403, -99.795807, +91.173683, +180.040710 
1488856231.252622, 1488856231.252622, -1.648926, -0.204712, -0.238403, -99.795807, +91.173683, +180.040710 
1488856231.256660, 1488856231.256660, -1.648926, -0.204712, -0.238403, -99.795807, +91.173683, +180.040710 
1488856231.260708, 1488856231.260708, -1.648926, -0.204712, -0.238403, -98.147858, +88.091408, +177.751892 
1488856231.264709, 1488856231.264709, -1.703125, -0.206055, -0.339111, -98.147858, +88.091408, +177.751892 
1488856231.268664, 1488856231.268664, -1.703125, -0.206055, -0.339111, -98.147858, +88.091408, +177.751892 
1488856231.272618, 1488856231.272618, -1.703125, -0.206055, -0.339111, -93.814362, +84.230934, +174.349182 
1488856231.276579, 1488856231.276579, -1.703125, -0.206055, -0.339111, -93.814362, +84.230934, +174.349182 
1488856231.280526, 1488856231.280526, -1.703125, -0.206055, -0.339111, -86.001862, +79.821144, +170.915955 
1488856231.284415, 1488856231.284415, -1.755859, -0.284546, -0.407593, -87.024200, +79.821144, +170.915955 
1488856231.288158, 1488856231.288158, -1.755859, -0.284546, -0.407593, -87.024200, +79.821144, +170.915955 
1488856231.291907, 1488856231.291907, -1.755859, -0.284546, -0.407593, -80.203522, +73.595558, +163.210266 
1488856231.295810, 1488856231.295810, -1.755859, -0.284546, -0.407593, -80.203522, +73.595558, +163.210266 
1488856231.299758, 1488856231.299758, -1.755859, -0.284546, -0.407593, -80.203522, +73.595558, +163.210266 
1488856231.303720, 1488856231.303720, -1.656860, -0.653564, -0.317383, -68.133820, +66.988503, +150.118225 
1488856231.307662, 1488856231.307662, -1.656860, -0.653564, -0.317383, -68.133820, +66.988503, +150.118225 
1488856231.311801, 1488856231.311801, -1.656860, -0.653564, -0.317383, -68.133820, +66.988503, +150.118225 
1488856231.315883, 1488856231.315883, -1.656860, -0.653564, -0.317383, -51.959503, +63.463722, +135.835999 
1488856231.319827, 1488856231.319827, -1.656860, -0.653564, -0.317383, -51.959503, +63.463722, +135.835999 
1488856231.323780, 1488856231.323780, -1.426392, -0.659546, -0.366211, -51.959503, +59.557472, +121.660591 
1488856231.327724, 1488856231.327724, -1.426392, -0.659546, -0.366211, -31.894194, +60.473000, +121.660591 
1488856231.331672, 1488856231.331672, -1.426392, -0.659546, -0.366211, -31.894194, +60.473000, +121.660591 
1488856231.335488, 1488856231.335488, -1.426392, -0.659546, -0.366211, -8.090483, +57.207619, +107.347847 
1488856231.339236, 1488856231.339236, -1.426392, -0.659546, -0.366211, -8.090483, +57.207619, +107.347847 
1488856231.343018, 1488856231.343018, -1.459106, -0.471069, -0.181274, -8.090483, +57.207619, +107.347847 
1488856231.346774, 1488856231.346774, -1.459106, -0.471069, -0.181274, +10.326876, +47.976051, +91.204048 
1488856231.350531, 1488856231.350531, -1.459106, -0.471069, -0.181274, +10.326876, +47.976051, +91.204048 
1488856231.354285, 1488856231.354285, -1.459106, -0.471069, -0.181274, +10.326876, +47.976051, +91.204048 
1488856231.358040, 1488856231.358040, -1.459106, -0.471069, -0.181274, +17.834200, +34.960304, +70.665718 
1488856231.361792, 1488856231.361792, -1.459106, -0.489990, -0.064941, +17.834200, +34.960304, +70.665718 
1488856231.365696, 1488856231.365696, -1.410400, -0.489990, -0.064941, +17.834200, +34.960304, +70.665718 
1488856231.369452, 1488856231.369452, -1.410400, -0.489990, -0.064941, +16.705050, +23.058447, +45.153023 
1488856231.373366, 1488856231.373366, -1.410400, -0.489990, -0.064941, +16.705050, +23.058447, +45.153023 
1488856231.377121, 1488856231.377121, -1.410400, -0.489990, -0.064941, +16.705050, +23.058447, +45.153023 
1488856231.380870, 1488856231.380870, -1.410400, -0.489990, +0.185059, +11.440767, +12.117895, +16.878487 
1488856231.384722, 1488856231.384722, -1.422363, -0.475342, +0.169800, +11.440767, +12.117895, +16.878487 
1488856231.388641, 1488856231.388641, -1.422363, -0.475342, +0.169800, +11.440767, +12.117895, -14.371513 
1488856231.392558, 1488856231.392558, -1.422363, -0.475342, +0.169800, +1.141085, -0.714746, -13.455986 
1488856231.396483, 1488856231.396483, -1.422363, -0.475342, +0.169800, +1.141085, -0.714746, -13.455986 
1488856231.400393, 1488856231.400393, -1.422363, -0.475342, +0.169800, -14.483915, -12.494532, -43.668388 
1488856231.404330, 1488856231.404330, -1.424194, -0.482178, +0.224609, -11.676298, -12.494532, -43.668388 
1488856231.408248, 1488856231.408248, -1.424194, -0.482178, +0.224609, -11.676298, -12.494532, -43.668388 
1488856231.412268, 1488856231.412268, -1.424194, -0.482178, +0.224609, -23.990141, -24.381128, -71.149467 
1488856231.416110, 1488856231.416110, -1.424194, -0.482178, +0.224609, -23.990141, -24.381128, -71.149467 
1488856231.419855, 1488856231.419855, -1.424194, -0.482178, +0.224609, -23.990141, -24.381128, -71.149467 
1488856231.423710, 1488856231.423710, -1.469116, -0.506592, +0.219482, -36.532867, -35.275902, -96.051811 
1488856231.427456, 1488856231.427456, -1.469116, -0.506592, +0.219482, -36.532867, -35.275902, -96.051811 
1488856231.431493, 1488856231.431493, -1.469116, -0.506592, +0.219482, -36.532867, -35.275902, -96.051811 
1488856231.435530, 1488856231.435530, -1.469116, -0.506592, +0.219482, -46.512115, -44.187035, -118.573784 
1488856231.439454, 1488856231.439454, -1.469116, -0.506592, +0.219482, -46.512115, -44.187035, -118.573784 
1488856231.443398, 1488856231.443398, -1.060059, +0.639282, -0.688843, -46.512115, -44.187035, -127.927422 
1488856231.447465, 1488856231.447465, -1.060059, +0.639282, -0.688843, -59.146393, -42.081322, -127.927422 
1488856231.451411, 1488856231.451411, -1.060059, +0.639282, -0.688843, -59.146393, -42.081322, -127.927422 
1488856231.455378, 1488856231.455378, -1.060059, +0.639282, -0.688843, -86.841095, -30.408350, -104.947685 
1488856231.459323, 1488856231.459323, -1.060059, +0.639282, -0.688843, -86.841095, -30.408350, -104.947685 
1488856231.463271, 1488856231.463271, -0.213623, +2.490845, -1.184814, -86.841095, -30.408350, -104.947685 
1488856231.467018, 1488856231.467018, -0.213623, +2.490845, -1.184814, -47.214020, -13.883081, -48.642754 
1488856231.470761, 1488856231.470761, -0.213623, +2.490845, -1.184814, -47.214020, -13.883081, -48.642754 
1488856231.475074, 1488856231.475074, -0.213623, +2.490845, -1.184814, -47.214020, -13.883081, -48.642754 
1488856231.478820, 1488856231.478820, -0.213623, +2.490845, -1.184814, +38.845551, +7.570776, -12.204765 
1488856231.482561, 1488856231.482561, -1.721558, -0.652222, +0.301392, +38.845551, +7.570776, -12.204765 
1488856231.486391, 1488856231.486391, -1.721558, -0.652222, +0.301392, +38.845551, +7.570776, -12.204765 
1488856231.490133, 1488856231.490133, -1.721558, -0.652222, +0.301392, +19.711031, -5.963770, -37.046074 
1488856231.493888, 1488856231.493888, -1.721558, -0.652222, +0.301392, +19.711031, -5.963770, -37.046074 
1488856231.497629, 1488856231.497629, -1.721558, -0.652222, +0.301392, +19.711031, -5.963770, -72.202324 
1488856231.501363, 1488856231.501363, -1.560913, +0.336182, -0.357910, -21.533476, -24.198023, -72.705864 
1488856231.505122, 1488856231.505122, -1.560913, +0.336182, -0.357910, -21.533476, -24.198023, -72.705864 
1488856231.508866, 1488856231.508866, -1.560913, +0.336182, -0.357910, -21.533476, -24.198023, -79.282402 
1488856231.512612, 1488856231.512612, -1.560913, +0.336182, -0.357910, -35.647858, -22.519556, -79.282402 
1488856231.516370, 1488856231.516370, -1.560913, +0.336182, -0.357910, -35.647858, -22.519556, -79.282402 
1488856231.520118, 1488856231.520118, -1.560913, +0.336182, -0.324585, -35.647858, -12.753931, -74.704765 
1488856231.524010, 1488856231.524010, -1.312500, +0.395142, -0.324585, -33.130157, -12.753931, -74.704765 
1488856231.527769, 1488856231.527769, -1.312500, +0.395142, -0.324585, -33.130157, -12.753931, -74.704765 
1488856231.531531, 1488856231.531531, -1.312500, +0.395142, -0.324585, -38.791168, -4.682032, -84.073662 
1488856231.535545, 1488856231.535545, -1.312500, +0.395142, -0.324585, -38.791168, -4.682032, -84.073662 
1488856231.539466, 1488856231.539466, -1.312500, +0.395142, -0.324585, -38.791168, -4.682032, -84.073662 
1488856231.543392, 1488856231.543392, -1.398560, -0.001709, -0.347168, -55.713165, -5.994287, -98.249077 
1488856231.547323, 1488856231.547323, -1.398560, -0.001709, -0.347168, -55.713165, -5.994287, -98.249077 
1488856231.551256, 1488856231.551256, -1.398560, -0.001709, -0.347168, -55.713165, -5.994287, -98.249077 
1488856231.555183, 1488856231.555183, -1.398560, -0.001709, -0.347168, -54.721344, -15.302149, -100.583672 
1488856231.559222, 1488856231.559222, -1.398560, -0.001709, -0.347168, -54.721344, -15.302149, -100.583672 
1488856231.563368, 1488856231.563368, -1.141846, -0.256714, -0.569458, -54.721344, -23.114649, -89.719414 
1488856231.567297, 1488856231.567297, -1.141846, -0.256714, -0.569458, -23.654448, -22.031275, -89.719414 
1488856231.571221, 1488856231.571221, -1.141846, -0.256714, -0.569458, -23.654448, -22.031275, -89.719414 
1488856231.575171, 1488856231.575171, -1.141846, -0.256714, -0.569458, +21.694674, -21.573511, -75.360893 
1488856231.579103, 1488856231.579103, -1.141846, -0.256714, -0.569458, +21.694674, -21.573511, -75.360893 
1488856231.583042, 1488856231.583042, -0.963745, -0.198486, -0.637695, +21.694674, -21.573511, -75.360893 
1488856231.586985, 1488856231.586985, -0.963745, -0.198486, -0.637695, +56.637299, -19.849268, -67.090630 
1488856231.590986, 1488856231.590986, -0.963745, -0.198486, -0.637695, +56.637299, -19.849268, -67.090630 
1488856231.595331, 1488856231.595331, -0.963745, -0.198486, -0.637695, +56.637299, -19.849268, -67.090630 
1488856231.599281, 1488856231.599281, -0.963745, -0.198486, -0.418945, +73.269379, -20.886866, -61.261772 
1488856231.603275, 1488856231.603275, -1.004150, +0.338257, -0.422119, +73.269379, -20.886866, -61.261772 
1488856231.607212, 1488856231.607212, -1.004150, +0.338257, -0.422119, +73.269379, -24.014917, -58.133720 
1488856231.611159, 1488856231.611159, -1.004150, +0.338257, -0.422119, +64.907562, -24.014917, -58.133720 
1488856231.615121, 1488856231.615121, -1.004150, +0.338257, -0.422119, +64.907562, -24.014917, -58.133720 
1488856231.619064, 1488856231.619064, -1.004150, +0.338257, -0.328369, +50.579559, -25.586573, -58.179497 
1488856231.623014, 1488856231.623014, -1.138062, +0.161133, -0.323364, +50.579559, -25.586573, -58.179497 
1488856231.626770, 1488856231.626770, -1.138062, +0.161133, -0.323364, +50.579559, -25.586573, -58.179497 
1488856231.630526, 1488856231.630526, -1.138062, +0.161133, -0.323364, +40.234100, -24.625269, -59.095024 
1488856231.634282, 1488856231.634282, -1.138062, +0.161133, -0.323364, +40.234100, -24.625269, -59.095024 
1488856231.638032, 1488856231.638032, -1.138062, +0.161133, -0.323364, +40.234100, -24.625269, -59.095024 
1488856231.641783, 1488856231.641783, -1.194824, +0.257202, -0.263550, +26.989473, -22.839991, -58.591484 
1488856231.645695, 1488856231.645695, -1.194824, +0.257202, -0.263550, +26.989473, -22.839991, -58.591484 
1488856231.649445, 1488856231.649445, -1.194824, +0.257202, -0.263550, +26.989473, -22.839991, -58.591484 
1488856231.653362, 1488856231.653362, -1.194824, +0.257202, -0.263550, +17.803682, -22.916285, -58.332085 
1488856231.657317, 1488856231.657317, -1.194824, +0.257202, -0.263550, +17.803682, -22.916285, -58.332085 
1488856231.661263, 1488856231.661263, -1.148438, +0.029297, -0.288940, +17.803682, -22.916285, -56.241631 
1488856231.665217, 1488856231.665217, -1.148438, +0.029297, -0.288940, +12.096895, -23.358789, -56.241631 
1488856231.669161, 1488856231.669161, -1.148438, +0.029297, -0.288940, +12.096895, -23.358789, -56.241631 
1488856231.673121, 1488856231.673121, -1.148438, +0.029297, -0.288940, +10.891451, -22.244898, -51.618217 
1488856231.676876, 1488856231.676876, -1.148438, +0.029297, -0.288940, +10.891451, -22.244898, -51.618217 
1488856231.680628, 1488856231.680628, -1.061279, -0.026489, -0.379517, +10.891451, -22.244898, -51.618217 
1488856231.684512, 1488856231.684512, -1.061279, -0.026489, -0.379517, +11.730684, -21.665064, -45.804619 
1488856231.688453, 1488856231.688453, -1.061279, -0.026489, -0.379517, +11.730684, -21.665064, -45.804619 
1488856231.692400, 1488856231.692400, -1.061279, -0.026489, -0.379517, +11.730684, -21.665064, -45.804619 
1488856231.696357, 1488856231.696357, -1.061279, -0.026489, -0.379517, +16.308321, -21.237818, -39.304375 
1488856231.700306, 1488856231.700306, -1.099365, -0.098511, -0.386353, +16.308321, -21.237818, -39.304375 
1488856231.704296, 1488856231.704296, -1.099365, -0.098511, -0.386353, +16.308321, -21.237818, -39.304375 
1488856231.708352, 1488856231.708352, -1.099365, -0.098511, -0.386353, +19.985689, -20.032373, -33.322929 
1488856231.712418, 1488856231.712418, -1.099365, -0.098511, -0.386353, +19.985689, -20.032373, -33.322929 
1488856231.716545, 1488856231.716545, -1.099365, -0.098511, -0.386353, +22.121920, -19.086329, -28.119682 
1488856231.720302, 1488856231.720302, -1.077148, -0.083862, -0.304199, +22.121920, -19.086329, -28.119682 
1488856231.724127, 1488856231.724127, -1.077148, -0.083862, -0.304199, +22.121920, -19.086329, -28.119682 
1488856231.728078, 1488856231.728078, -1.077148, -0.083862, -0.304199, +24.364962, -17.545191, -24.030327 
1488856231.732026, 1488856231.732026, -1.077148, -0.083862, -0.304199, +24.364962, -17.545191, -24.030327 
1488856231.735982, 1488856231.735982, -1.077148, -0.083862, -0.304199, +24.364962, -17.545191, -24.030327 
1488856231.739934, 1488856231.739934, -1.084473, +0.030884, -0.303223, +26.989473, -16.904322, -20.169853 
1488856231.743854, 1488856231.743854, -1.084473, +0.030884, -0.303223, +26.989473, -16.904322, -20.169853 
1488856231.747615, 1488856231.747615, -1.084473, +0.030884, -0.303223, +26.989473, -16.904322, -20.169853 
1488856231.751362, 1488856231.751362, -1.084473, +0.030884, -0.303223, +27.477755, -15.500513, -17.804741 
1488856231.755126, 1488856231.755126, -1.084473, +0.030884, -0.303223, +27.477755, -15.500513, -17.804741 
1488856231.758883, 1488856231.758883, -1.146973, +0.047974, -0.302612, +27.477755, -15.500513, -17.804741 
1488856231.762640, 1488856231.762640, -1.126099, +0.047974, -0.302612, +24.899019, -15.622583, -16.828178 
1488856231.766485, 1488856231.766485, -1.126099, +0.047974, -0.302612, +24.899019, -15.622583, -16.828178 
1488856231.770231, 1488856231.770231, -1.126099, +0.047974, -0.302612, +24.899019, -15.622583, -18.186211 
1488856231.774197, 1488856231.774197, -1.126099, +0.047974, -0.302612, +22.060884, -16.690699, -18.186211 
1488856231.778145, 1488856231.778145, -1.126099, +0.047974, -0.375122, +22.060884, -16.690699, -18.186211 
1488856231.782089, 1488856231.782089, -1.069214, +0.053101, -0.375122, +17.574800, -18.155542, -19.788383 
1488856231.786036, 1488856231.786036, -1.069214, +0.053101, -0.375122, +17.574800, -18.155542, -19.788383 
1488856231.789982, 1488856231.789982, -1.069214, +0.053101, -0.375122, +17.574800, -18.155542, -19.788383 
1488856231.793945, 1488856231.793945, -1.069214, +0.053101, -0.375122, +15.347017, -19.101587, -20.337700 
1488856231.797893, 1488856231.797893, -1.069214, +0.053101, -0.423218, +15.347017, -19.101587, -20.337700 
1488856231.801851, 1488856231.801851, -1.030884, +0.053589, -0.423218, +15.347017, -19.101587, -20.337700 
1488856231.805667, 1488856231.805667, -1.030884, +0.053589, -0.423218, +14.172091, -19.544092, -20.352959 
1488856231.809421, 1488856231.809421, -1.030884, +0.053589, -0.423218, +14.172091, -19.544092, -20.352959 
1488856231.813255, 1488856231.813255, -1.030884, +0.053589, -0.423218, +14.172091, -19.544092, -20.352959 
1488856231.817210, 1488856231.817210, -1.030884, +0.053589, -0.423218, +14.553560, -19.788233, -20.536064 
1488856231.821159, 1488856231.821159, -1.083008, -0.029785, -0.385742, +14.553560, -19.788233, -20.536064 
1488856231.825111, 1488856231.825111, -1.083008, -0.029785, -0.385742, +18.459810, -20.642725, -21.268486 
1488856231.829106, 1488856231.829106, -1.083008, -0.029785, -0.385742, +16.384615, -20.642725, -21.268486 
1488856231.833671, 1488856231.833671, -1.083008, -0.029785, -0.385742, +16.384615, -20.642725, -21.268486 
1488856231.837619, 1488856231.837619, -1.083008, -0.029785, -0.380737, +17.406954, -22.077051, -21.680473 
1488856231.841564, 1488856231.841564, -1.001099, +0.024414, -0.380737, +17.406954, -22.077051, -21.680473 
1488856231.845410, 1488856231.845410, -1.001099, +0.024414, -0.380737, +17.406954, -22.077051, -21.680473 
1488856231.849167, 1488856231.849167, -1.001099, +0.024414, -0.380737, +17.437471, -22.901026, -22.946953 
1488856231.852915, 1488856231.852915, -1.001099, +0.024414, -0.380737, +17.437471, -22.901026, -22.946953 
1488856231.857019, 1488856231.857019, -1.001099, +0.024414, -0.380737, +17.437471, -22.901026, -26.853203 
1488856231.860961, 1488856231.860961, -1.046265, +0.011963, -0.305420, +15.621675, -23.602930, -24.671196 
1488856231.864832, 1488856231.864832, -1.046265, +0.011963, -0.305420, +15.621675, -23.602930, -24.671196 
1488856231.868575, 1488856231.868575, -1.046265, +0.011963, -0.305420, +15.621675, -24.579493, -25.815605 
1488856231.872332, 1488856231.872332, -1.046265, +0.011963, -0.305420, +12.768282, -24.579493, -25.815605 
1488856231.876130, 1488856231.876130, -1.046265, +0.011963, -0.305420, +12.768282, -24.579493, -25.815605 
1488856231.879880, 1488856231.879880, -1.049438, -0.091309, -0.331543, +11.852755, -25.601831, -26.654839 
1488856231.883806, 1488856231.883806, -1.049438, -0.091309, -0.331543, +11.852755, -25.601831, -26.654839 
1488856231.887560, 1488856231.887560, -1.049438, -0.091309, -0.331543, +11.852755, -25.601831, -26.654839 
1488856231.891319, 1488856231.891319, -1.049438, -0.091309, -0.331543, +13.714327, -26.181665, -27.127861 
1488856231.895252, 1488856231.895252, -1.049438, -0.091309, -0.331543, +13.714327, -26.181665, -27.127861 
1488856231.899182, 1488856231.899182, -1.052124, -0.018799, -0.355713, +13.714327, -26.181665, -27.127861 
1488856231.903113, 1488856231.903113, -1.052124, -0.018799, -0.355713, +15.942110, -26.105371, -26.578545 
1488856231.907045, 1488856231.907045, -1.052124, -0.018799, -0.355713, +15.942110, -26.105371, -26.578545 
1488856231.910977, 1488856231.910977, -1.052124, -0.018799, -0.355713, +15.942110, -26.105371, -26.578545 
1488856231.914909, 1488856231.914909, -1.052124, -0.018799, -0.355713, +16.933931, -25.357691, -25.510429 
1488856231.918835, 1488856231.918835, -1.116943, -0.104980, -0.267456, +16.933931, -25.357691, -25.510429 
1488856231.922753, 1488856231.922753, -1.116943, -0.104980, -0.267456, +16.933931, -25.357691, -25.525688 
1488856231.926695, 1488856231.926695, -1.116943, -0.104980, -0.267456, +16.598238, -25.174585, -25.525688 
1488856231.930616, 1488856231.930616, -1.116943, -0.104980, -0.267456, +16.598238, -25.174585, -25.525688 
1488856231.934551, 1488856231.934551, -1.116943, -0.104980, -0.267456, +15.850557, -25.388208, -25.083183 
1488856231.938478, 1488856231.938478, -1.111328, -0.057739, -0.270752, +15.850557, -25.388208, -25.083183 
1488856231.942393, 1488856231.942393, -1.111328, -0.057739, -0.270752, +15.850557, -25.388208, -25.083183 
1488856231.946350, 1488856231.946350, -1.111328, -0.057739, -0.270752, +13.775362, -25.800196, -25.266289 
1488856231.950465, 1488856231.950465, -1.111328, -0.057739, -0.270752, +13.775362, -25.800196, -25.266289 
1488856231.954527, 1488856231.954527, -1.111328, -0.057739, -0.270752, +13.775362, -25.800196, -25.266289 
1488856231.958482, 1488856231.958482, -1.106689, -0.070679, -0.257446, +11.517061, -25.464502, -26.227592 
1488856231.962422, 1488856231.962422, -1.106689, -0.070679, -0.257446, +11.517061, -25.464502, -26.227592 
1488856231.966385, 1488856231.966385, -1.106689, -0.070679, -0.257446, +11.517061, -25.464502, -26.563286 
1488856231.970323, 1488856231.970323, -1.106689, -0.070679, -0.257446, +9.151949, -25.693384, -26.563286 
1488856231.974278, 1488856231.974278, -1.106689, -0.070679, -0.257446, +9.151949, -25.693384, -26.563286 
1488856231.978222, 1488856231.978222, -1.069336, -0.070435, -0.324829, +8.663668, -25.845972, -26.670097 
1488856231.982169, 1488856231.982169, -1.069336, -0.070435, -0.324829, +8.663668, -25.845972, -26.670097 
1488856231.985973, 1488856231.985973, -1.069336, -0.070435, -0.324829, +8.663668, -25.845972, -26.670097 
1488856231.989719, 1488856231.989719, -1.069336, -0.070435, -0.324829, +10.799898, -25.784937, -26.166557 
1488856231.993505, 1488856231.993505, -1.069336, -0.070435, -0.324829, +10.799898, -25.784937, -26.166557 
1488856231.997250, 1488856231.997250, -1.131836, -0.157715, -0.297729, +10.799898, -25.784937, -26.166557 
1488856232.000998, 1488856232.000998, -1.148193, -0.157715, -0.297729, +13.195528, -26.486841, -26.090263 
1488856232.004925, 1488856232.004925, -1.148193, -0.157715, -0.297729, +13.195528, -26.486841, -26.090263 
1488856232.008790, 1488856232.008790, -1.148193, -0.157715, -0.297729, +13.195528, -26.486841, -26.090263 
1488856232.012539, 1488856232.012539, -1.148193, -0.157715, -0.297729, +14.400972, -27.936426, -26.502251 
1488856232.016625, 1488856232.016625, -1.148193, -0.032715, -0.352539, +14.400972, -27.936426, -26.502251 
1488856232.020571, 1488856232.020571, -1.113037, -0.048706, -0.352539, +14.400972, -27.936426, -26.853203 
1488856232.024529, 1488856232.024529, -1.113037, -0.048706, -0.352539, +13.515963, -29.111353, -26.853203 
1488856232.028477, 1488856232.028477, -1.113037, -0.048706, -0.352539, +13.515963, -29.111353, -26.853203 
1488856232.032423, 1488856232.032423, -1.113037, -0.048706, -0.352539, +13.912691, -30.103174, -27.616142 
1488856232.036221, 1488856232.036221, -1.113037, -0.048706, -0.316040, +13.912691, -30.103174, -27.616142 
1488856232.039961, 1488856232.039961, -1.149658, -0.101318, -0.316040, +13.912691, -30.103174, -27.616142 
1488856232.043759, 1488856232.043759, -1.149658, -0.101318, -0.316040, +14.324678, -31.598536, -28.348564 
1488856232.047706, 1488856232.047706, -1.149658, -0.101318, -0.316040, +14.324678, -31.598536, -28.348564 
1488856232.051656, 1488856232.051656, -1.149658, -0.101318, -0.316040, +14.324678, -31.598536, -28.348564 
1488856232.055611, 1488856232.055611, -1.149658, -0.101318, -0.316040, +15.087618, -33.429588, -28.653740 
1488856232.059552, 1488856232.059552, -1.162964, -0.106812, -0.325928, +15.087618, -33.429588, -28.653740 
1488856232.063507, 1488856232.063507, -1.162964, -0.106812, -0.325928, +15.087618, -33.429588, -28.653740 
1488856232.067452, 1488856232.067452, -1.162964, -0.106812, -0.325928, +16.094698, -35.047020, -29.111504 
1488856232.071468, 1488856232.071468, -1.162964, -0.106812, -0.325928, +16.094698, -35.047020, -29.111504 
1488856232.075568, 1488856232.075568, -1.162964, -0.106812, -0.294678, +16.094698, -36.328758, -29.065727 
1488856232.079509, 1488856232.079509, -1.187134, -0.165405, -0.293457, +18.398775, -36.328758, -29.065727 
1488856232.083456, 1488856232.083456, -1.187134, -0.165405, -0.293457, +18.398775, -36.328758, -29.065727 
1488856232.087211, 1488856232.087211, -1.187134, -0.165405, -0.293457, +21.114840, -38.434471, -29.416679 
1488856232.090965, 1488856232.090965, -1.187134, -0.165405, -0.293457, +21.114840, -38.434471, -29.416679 
1488856232.094809, 1488856232.094809, -1.187134, -0.165405, -0.293457, +21.114840, -38.434471, -29.416679 
1488856232.098758, 1488856232.098758, -1.179688, -0.067627, -0.330811, +20.733370, -40.799583, -29.584526 
1488856232.102698, 1488856232.102698, -1.179688, -0.067627, -0.330811, +20.733370, -40.799583, -29.584526 
1488856232.106516, 1488856232.106516, -1.179688, -0.067627, -0.330811, +20.733370, -40.799583, -29.584526 
1488856232.110274, 1488856232.110274, -1.179688, -0.067627, -0.330811, +18.703951, -42.737450, -30.316948 
1488856232.114067, 1488856232.114067, -1.179688, -0.067627, -0.330811, +18.703951, -42.737450, -30.316948 
1488856232.117823, 1488856232.117823, -1.195801, -0.088379, -0.277710, +18.703951, -42.737450, -30.316948 
1488856232.121575, 1488856232.121575, -1.195801, -0.088379, -0.277710, +17.391695, -44.202293, -31.659721 
1488856232.125505, 1488856232.125505, -1.195801, -0.088379, -0.277710, +17.391695, -44.202293, -31.659721 
1488856232.129252, 1488856232.129252, -1.195801, -0.088379, -0.277710, +17.391695, -44.202293, -35.565971 
1488856232.133117, 1488856232.133117, -1.195801, -0.088379, -0.277710, +16.842379, -46.903099, -33.673882 
1488856232.136876, 1488856232.136876, -1.209717, -0.117310, -0.294922, +16.842379, -46.903099, -33.673882 
1488856232.140630, 1488856232.140630, -1.209717, -0.117310, -0.294922, +16.842379, -50.809349, -35.535454 
1488856232.144505, 1488856232.144505, -1.209717, -0.117310, -0.294922, +17.895235, -48.947777, -35.535454 
1488856232.148446, 1488856232.148446, -1.209717, -0.117310, -0.294922, +17.895235, -48.947777, -35.535454 
1488856232.152390, 1488856232.152390, -1.209717, -0.117310, -0.294922, +18.810762, -51.328148, -37.091850 
1488856232.156460, 1488856232.156460, -1.222778, -0.157104, -0.277954, +18.810762, -51.328148, -37.091850 
1488856232.160411, 1488856232.160411, -1.222778, -0.157104, -0.277954, +18.810762, -51.328148, -37.091850 
1488856232.164361, 1488856232.164361, -1.222778, -0.157104, -0.277954, +19.268526, -53.723778, -39.228081 
1488856232.168304, 1488856232.168304, -1.222778, -0.157104, -0.277954, +19.268526, -53.723778, -39.228081 
1488856232.172258, 1488856232.172258, -1.222778, -0.157104, -0.277954, +19.268526, -53.723778, -39.228081 
1488856232.176215, 1488856232.176215, -1.213013, -0.098022, -0.324829, +21.404757, -55.798973, -41.562675 
1488856232.180161, 1488856232.180161, -1.213013, -0.098022, -0.324829, +21.404757, -55.798973, -41.562675 
1488856232.184072, 1488856232.184072, -1.213013, -0.098022, -0.324829, +21.404757, -55.798973, -43.820976 
1488856232.187828, 1488856232.187828, -1.213013, -0.098022, -0.324829, +23.159517, -57.355370, -43.820976 
1488856232.191689, 1488856232.191689, -1.213013, -0.098022, -0.324829, +23.159517, -57.355370, -43.820976 
1488856232.195715, 1488856232.195715, -1.306763, -0.143188, -0.233032, +24.746431, -59.232201, -46.002983 
1488856232.199662, 1488856232.199662, -1.281494, -0.143188, -0.233032, +24.746431, -59.232201, -46.002983 
1488856232.203603, 1488856232.203603, -1.281494, -0.143188, -0.233032, +24.746431, -59.232201, -46.002983 
1488856232.207555, 1488856232.207555, -1.281494, -0.143188, -0.233032, +26.638521, -62.451805, -49.436211 
1488856232.211498, 1488856232.211498, -1.281494, -0.143188, -0.233032, +26.638521, -62.451805, -49.436211 
1488856232.215490, 1488856232.215490, -1.250244, +0.054810, -0.302246, +26.638521, -62.451805, -49.436211 
1488856232.219439, 1488856232.219439, -1.253418, +0.054810, -0.302246, +31.231417, -66.556419, -51.389336 
1488856232.223372, 1488856232.223372, -1.253418, +0.054810, -0.302246, +31.231417, -66.556419, -51.389336 
1488856232.227128, 1488856232.227128, -1.253418, +0.054810, -0.302246, +31.231417, -66.556419, -51.389336 
1488856232.230877, 1488856232.230877, -1.253418, +0.054810, -0.302246, +32.146942, -69.196190, -53.510307 
1488856232.234654, 1488856232.234654, -1.253418, +0.054810, -0.326538, +32.146942, -69.196190, -53.510307 
1488856232.238408, 1488856232.238408, -1.416016, -0.032471, -0.326538, +32.146942, -69.196190, -60.285210 
1488856232.242160, 1488856232.242160, -1.416016, -0.032471, -0.326538, +27.737154, -72.949852, -60.285210 
1488856232.246081, 1488856232.246081, -1.416016, -0.032471, -0.326538, +27.737154, -72.949852, -60.285210 
1488856232.249837, 1488856232.249837, -1.416016, -0.032471, -0.326538, +23.830904, -76.505150, -67.197441 
1488856232.253776, 1488856232.253776, -1.416016, -0.032471, -0.326538, +26.897921, -76.505150, -67.197441 
1488856232.257721, 1488856232.257721, -1.425049, +0.263672, -0.505859, +26.897921, -76.505150, -67.197441 
1488856232.261664, 1488856232.261664, -1.425049, +0.263672, -0.505859, +30.743135, -80.029930, -70.233940 
1488856232.265605, 1488856232.265605, -1.425049, +0.263672, -0.505859, +30.743135, -80.029930, -70.233940 
1488856232.269553, 1488856232.269553, -1.425049, +0.263672, -0.505859, +30.743135, -80.029930, -70.233940 
1488856232.273505, 1488856232.273505, -1.425049, +0.263672, -0.505859, +35.213959, -82.791771, -73.072075 
1488856232.277457, 1488856232.277457, -1.618164, +0.089478, -0.485962, +35.213959, -82.791771, -73.072075 
1488856232.281406, 1488856232.281406, -1.618164, +0.089478, -0.485962, +35.213959, -82.791771, -73.072075 
1488856232.285249, 1488856232.285249, -1.618164, +0.089478, -0.485962, +41.714203, -86.484398, -79.190849 
1488856232.289001, 1488856232.289001, -1.618164, +0.089478, -0.485962, +41.714203, -86.484398, -79.190849 
1488856232.292755, 1488856232.292755, -1.618164, +0.089478, -0.485962, +41.714203, -86.484398, -84.210991 
1488856232.296757, 1488856232.296757, -1.738647, +0.386841, -0.666382, +52.563202, -89.047874, -84.210991 
1488856232.300691, 1488856232.300691, -1.738647, +0.386841, -0.666382, +52.563202, -89.047874, -84.210991 
1488856232.304799, 1488856232.304799, -1.738647, +0.386841, -0.666382, +64.007294, -91.733421, -85.416435 
1488856232.308807, 1488856232.308807, -1.738647, +0.386841, -0.666382, +64.007294, -91.733421, -85.416435 
1488856232.313710, 1488856232.313710, -1.738647, +0.386841, -0.666382, +64.007294, -91.733421, -85.416435 
1488856232.317465, 1488856232.317465, -1.752930, +0.122681, -0.558228, +75.451385, -92.221703, -85.904716 
1488856232.321212, 1488856232.321212, -1.752930, +0.122681, -0.558228, +75.451385, -92.221703, -85.904716 
1488856232.325029, 1488856232.325029, -1.752930, +0.122681, -0.558228, +75.451385, -92.221703, -85.904716 
1488856232.328768, 1488856232.328768, -1.752930, +0.122681, -0.558228, +79.617035, -93.152489, -88.315605 
1488856232.332507, 1488856232.332507, -1.752930, +0.122681, -0.558228, +79.617035, -93.152489, -88.315605 
1488856232.336266, 1488856232.336266, -1.680786, +0.113037, -0.577881, +79.617035, -93.152489, -88.315605 
1488856232.340008, 1488856232.340008, -1.680786, +0.113037, -0.577881, +76.336395, -96.112694, -90.192436 
1488856232.343766, 1488856232.343766, -1.680786, +0.113037, -0.577881, +76.336395, -96.112694, -90.192436 
1488856232.347507, 1488856232.347507, -1.680786, +0.113037, -0.577881, +76.336395, -96.112694, -92.145561 
1488856232.351255, 1488856232.351255, -1.680786, +0.113037, -0.577881, +58.269989, -98.630394, -92.145561 
1488856232.355036, 1488856232.355036, -1.419922, -0.004028, -0.508057, +58.269989, -98.630394, -92.145561 
1488856232.358791, 1488856232.358791, -1.419922, -0.004028, -0.508057, +30.926241, -95.593895, -95.639824 
1488856232.362538, 1488856232.362538, -1.419922, -0.004028, -0.508057, +28.759493, -95.593895, -95.639824 
1488856232.366472, 1488856232.366472, -1.419922, -0.004028, -0.508057, +28.759493, -95.593895, -95.639824 
1488856232.370223, 1488856232.370223, -1.419922, -0.004028, -0.508057, +3.246798, -87.033714, -97.470879 
1488856232.374182, 1488856232.374182, -1.419922, -0.322632, -0.300781, +3.246798, -87.033714, -97.470879 
1488856232.378130, 1488856232.378130, -1.134766, -0.322632, -0.300781, +3.246798, -87.033714, -97.470879 
1488856232.382069, 1488856232.382069, -1.134766, -0.322632, -0.300781, -8.853422, -73.361839, -94.388603 
1488856232.385867, 1488856232.385867, -1.134766, -0.322632, -0.300781, -8.853422, -73.361839, -94.388603 
1488856232.389616, 1488856232.389616, -1.134766, -0.322632, -0.300781, -8.853422, -73.361839, -94.388603 
1488856232.393387, 1488856232.393387, -1.134766, -0.322632, -0.236450, -0.751005, -61.933006, -85.385918 
1488856232.397307, 1488856232.397307, -0.729004, -0.833984, -0.236450, -0.751005, -61.933006, -85.385918 
1488856232.401223, 1488856232.401223, -0.729004, -0.833984, -0.236450, -0.751005, -61.933006, -85.385918 
1488856232.405157, 1488856232.405157, -0.729004, -0.833984, -0.236450, +27.615084, -47.772850, -66.785454 
1488856232.409070, 1488856232.409070, -0.729004, -0.833984, -0.236450, +27.615084, -47.772850, -66.785454 
1488856232.413002, 1488856232.413002, -0.729004, -0.833984, -0.330200, +27.615084, -35.367455, -41.822075 
1488856232.416950, 1488856232.416950, -0.645630, -0.310181, -0.330200, +63.045990, -35.367455, -41.822075 
1488856232.420876, 1488856232.420876, -0.645630, -0.310181, -0.330200, +63.045990, -35.367455, -41.822075 
1488856232.424791, 1488856232.424791, -0.645630, -0.310181, -0.330200, +82.241547, -28.882471, -19.834160 
1488856232.428679, 1488856232.428679, -0.645630, -0.310181, -0.330200, +82.241547, -28.882471, -19.834160 
1488856232.432800, 1488856232.432800, -0.645630, -0.310181, -0.298950, +82.241547, -28.882471, -19.834160 
1488856232.436791, 1488856232.436791, -0.231201, +0.481079, -0.284546, +80.135834, -21.787134, -0.333427 
1488856232.440545, 1488856232.440545, -0.231201, +0.481079, -0.284546, +80.135834, -21.787134, -0.333427 
1488856232.444372, 1488856232.444372, -0.231201, +0.481079, -0.284546, +80.135834, -21.787134, -0.333427 
1488856232.448306, 1488856232.448306, -0.231201, +0.481079, -0.284546, +72.903168, -12.982813, +17.671944 
1488856232.452254, 1488856232.452254, -0.231201, +0.481079, -0.284546, +72.903168, -12.982813, +17.671944 
1488856232.456311, 1488856232.456311, -0.156860, +0.458374, +0.034668, +72.903168, -1.264063, +29.329659 
1488856232.460259, 1488856232.460259, -0.156860, +0.458374, +0.034668, +54.882538, -3.690210, +29.329659 
1488856232.464147, 1488856232.464147, -0.156860, +0.458374, +0.034668, +54.882538, -3.690210, +29.329659 
1488856232.467897, 1488856232.467897, -0.156860, +0.458374, +0.034668, +29.751314, +9.630713, +37.020088 
1488856232.471649, 1488856232.471649, -0.156860, +0.458374, +0.034668, +29.751314, +9.630713, +37.020088 
1488856232.475416, 1488856232.475416, -0.200562, +0.193115, -0.108765, +29.751314, +9.630713, +37.020088 
1488856232.479171, 1488856232.479171, -0.200562, +0.193115, -0.108765, +11.501802, +30.001196, +47.258736 
1488856232.482918, 1488856232.482918, -0.200562, +0.193115, -0.108765, +11.501802, +30.001196, +47.258736 
1488856232.486839, 1488856232.486839, -0.200562, +0.193115, -0.108765, +11.501802, +30.001196, +47.258736 
1488856232.490587, 1488856232.490587, -0.200562, +0.193115, -0.108765, -1.224028, +47.945534, +63.387276 
1488856232.494444, 1488856232.494444, -0.386597, +0.167114, -0.184326, -1.224028, +47.945534, +63.387276 
1488856232.498384, 1488856232.498384, -0.386597, +0.167114, -0.184326, -1.224028, +47.945534, +63.387276 
1488856232.502328, 1488856232.502328, -0.386597, +0.167114, -0.184326, -0.751005, +64.989601, +79.561592 
1488856232.506311, 1488856232.506311, -0.386597, +0.167114, -0.184326, -0.751005, +64.989601, +79.561592 
1488856232.510248, 1488856232.510248, -0.386597, +0.167114, -0.184326, -0.751005, +64.989601, +95.186592 
1488856232.514197, 1488856232.514197, -0.431030, +0.472046, -0.121460, -10.699736, +78.722511, +95.796944 
1488856232.518143, 1488856232.518143, -0.431030, +0.472046, -0.121460, -10.699736, +78.722511, +95.796944 
1488856232.522097, 1488856232.522097, -0.431030, +0.472046, -0.121460, -38.043488, +93.401466, +104.997993 
1488856232.526091, 1488856232.526091, -0.431030, +0.472046, -0.121460, -37.539948, +93.401466, +104.997993 
1488856232.530037, 1488856232.530037, -0.431030, +0.472046, -0.121460, -37.539948, +93.401466, +104.997993 
1488856232.533959, 1488856232.533959, -0.620117, +0.346802, +0.107178, -71.826447, +108.873878, +107.118965 
1488856232.537711, 1488856232.537711, -0.620117, +0.346802, +0.107178, -71.826447, +108.873878, +107.118965 
1488856232.541471, 1488856232.541471, -0.620117, +0.346802, +0.107178, -71.826447, +108.873878, +107.118965 
1488856232.545236, 1488856232.545236, -0.620117, +0.346802, +0.107178, -89.389313, +117.128883, +110.124947 
1488856232.548986, 1488856232.548986, -0.620117, +0.346802, +0.107178, -89.389313, +117.128883, +110.124947 
1488856232.552890, 1488856232.552890, -0.901367, -0.099487, -0.111084, -89.389313, +117.128883, +110.124947 
1488856232.557150, 1488856232.557150, -0.905396, -0.099487, -0.111084, -75.747955, +113.070045, +120.211006 
1488856232.561100, 1488856232.561100, -0.905396, -0.099487, -0.111084, -75.747955, +113.070045, +120.211006 
1488856232.565094, 1488856232.565094, -0.905396, -0.099487, -0.111084, -75.747955, +113.070045, +134.996765 
1488856232.569039, 1488856232.569039, -0.905396, -0.099487, -0.111084, -59.039581, +104.570900, +134.996765 
1488856232.572999, 1488856232.572999, -1.165527, +0.119629, -0.064575, -59.039581, +104.570900, +134.996765 
1488856232.576948, 1488856232.576948, -1.165527, +0.119629, -0.064575, -61.038483, +99.489723, +150.011414 
1488856232.580888, 1488856232.580888, -1.165527, +0.119629, -0.064575, -61.038483, +99.489723, +150.011414 
1488856232.584795, 1488856232.584795, -1.165527, +0.119629, -0.064575, -61.038483, +99.489723, +150.011414 
1488856232.588542, 1488856232.588542, -1.165527, +0.119629, -0.064575, -74.649323, +101.793800, +162.325256 
1488856232.592299, 1488856232.592299, -1.165527, -0.171265, -0.152466, -74.649323, +101.793800, +162.325256 
1488856232.596054, 1488856232.596054, -1.158813, -0.171265, -0.152466, -74.649323, +101.793800, +162.325256 
1488856232.599796, 1488856232.599796, -1.158813, -0.171265, -0.152466, -84.338654, +109.407936, +171.419495 
1488856232.603787, 1488856232.603787, -1.158813, -0.171265, -0.152466, -84.338654, +109.407936, +171.419495 
1488856232.607537, 1488856232.607537, -1.158813, -0.171265, -0.152466, -84.338654, +109.407936, +171.419495 
1488856232.611291, 1488856232.611291, -1.158813, -0.171265, -0.152466, -79.928864, +112.352882, +177.721375 
1488856232.615246, 1488856232.615246, -1.263550, -0.166870, -0.203491, -79.928864, +112.352882, +177.721375 
1488856232.619196, 1488856232.619196, -1.263550, -0.166870, -0.203491, -79.928864, +112.352882, +181.627625 
1488856232.623137, 1488856232.623137, -1.263550, -0.166870, -0.203491, -74.847687, +109.468971, +180.773132 
1488856232.627077, 1488856232.627077, -1.263550, -0.166870, -0.203491, -74.847687, +109.468971, +180.773132 
1488856232.631029, 1488856232.631029, -1.263550, -0.166870, -0.203491, -70.941437, +107.119118, +181.581848 
1488856232.634983, 1488856232.634983, -1.429321, -0.279785, -0.176147, -73.626984, +107.119118, +181.581848 
1488856232.638923, 1488856232.638923, -1.429321, -0.279785, -0.176147, -73.626984, +107.119118, +181.581848 
1488856232.642861, 1488856232.642861, -1.429321, -0.279785, -0.176147, -71.795929, +105.928932, +182.543152 
1488856232.646630, 1488856232.646630, -1.429321, -0.279785, -0.176147, -71.795929, +105.928932, +182.543152 
1488856232.650374, 1488856232.650374, -1.429321, -0.279785, -0.176147, -71.795929, +105.928932, +182.543152 
1488856232.654130, 1488856232.654130, -1.537476, -0.329224, -0.171143, -70.056427, +106.462990, +184.969299 
1488856232.657883, 1488856232.657883, -1.537476, -0.329224, -0.171143, -70.056427, +106.462990, +184.969299 
1488856232.661623, 1488856232.661623, -1.537476, -0.329224, -0.171143, -70.056427, +106.462990, +184.969299 
1488856232.665551, 1488856232.665551, -1.537476, -0.329224, -0.171143, -68.393219, +106.447731, +186.128967 
1488856232.669493, 1488856232.669493, -1.537476, -0.329224, -0.171143, -68.393219, +106.447731, +186.128967 
1488856232.673487, 1488856232.673487, -1.614258, -0.289185, -0.170044, -68.393219, +106.447731, +186.128967 
1488856232.677424, 1488856232.677424, -1.614258, -0.289185, -0.170044, -68.805206, +103.701149, +184.267395 
1488856232.681583, 1488856232.681583, -1.614258, -0.289185, -0.170044, -68.805206, +103.701149, +184.267395 
1488856232.685754, 1488856232.685754, -1.614258, -0.289185, -0.170044, -71.277130, +99.642311, +180.055969 
1488856232.689681, 1488856232.689681, -1.614258, -0.289185, -0.170044, -71.277130, +99.642311, +180.055969 
1488856232.693596, 1488856232.693596, -1.590210, -0.341187, -0.158447, -71.277130, +99.642311, +180.055969 
1488856232.697383, 1488856232.697383, -1.590210, -0.341187, -0.158447, -75.519073, +95.278297, +174.730652 
1488856232.701134, 1488856232.701134, -1.590210, -0.341187, -0.158447, -75.519073, +95.278297, +174.730652 
1488856232.705001, 1488856232.705001, -1.590210, -0.341187, -0.158447, -75.519073, +95.278297, +174.730652 
1488856232.708936, 1488856232.708936, -1.590210, -0.341187, -0.158447, -78.525055, +92.104469, +169.512146 
1488856232.712875, 1488856232.712875, -1.506104, -0.320435, -0.197876, -78.525055, +92.104469, +169.512146 
1488856232.716625, 1488856232.716625, -1.506104, -0.320435, -0.197876, -78.525055, +92.104469, +169.512146 
1488856232.720375, 1488856232.720375, -1.506104, -0.320435, -0.197876, -80.310333, +90.929543, +165.621155 
1488856232.724133, 1488856232.724133, -1.506104, -0.320435, -0.197876, -80.310333, +90.929543, +165.621155 
1488856232.728371, 1488856232.728371, -1.506104, -0.320435, -0.197876, -80.310333, +90.929543, +162.416809 
1488856232.732115, 1488856232.732115, -1.475952, -0.254028, -0.210815, -81.775177, +89.693581, +162.416809 
1488856232.735859, 1488856232.735859, -1.475952, -0.254028, -0.210815, -81.775177, +89.693581, +162.416809 
1488856232.739601, 1488856232.739601, -1.475952, -0.254028, -0.210815, -81.775177, +85.787331, +159.059875 
1488856232.743346, 1488856232.743346, -1.475952, -0.254028, -0.210815, -81.973541, +87.420021, +159.059875 
1488856232.747090, 1488856232.747090, -1.475952, -0.254028, -0.210815, -81.973541, +87.420021, +159.059875 
1488856232.750936, 1488856232.750936, -1.475952, -0.254028, -0.216797, -79.806793, +83.925758, +155.458801 
1488856232.754689, 1488856232.754689, -1.471191, -0.252686, -0.216797, -79.806793, +83.925758, +155.458801 
1488856232.758433, 1488856232.758433, -1.471191, -0.252686, -0.216797, -79.806793, +83.925758, +155.458801 
1488856232.762181, 1488856232.762181, -1.471191, -0.252686, -0.216797, -76.205719, +80.462013, +152.223938 
1488856232.765979, 1488856232.765979, -1.471191, -0.252686, -0.216797, -76.205719, +80.462013, +152.223938 
1488856232.769723, 1488856232.769723, -1.471191, -0.252686, -0.216797, -76.205719, +80.462013, +152.223938 
1488856232.773612, 1488856232.773612, -1.550049, -0.301880, -0.261963, -70.132721, +74.846779, +149.095886 
1488856232.777357, 1488856232.777357, -1.550049, -0.301880, -0.261963, -70.132721, +74.846779, +149.095886 
1488856232.781098, 1488856232.781098, -1.550049, -0.301880, -0.261963, -70.132721, +74.846779, +149.095886 
1488856232.785002, 1488856232.785002, -1.550049, -0.301880, -0.261963, -59.802521, +69.170509, +145.143860 
1488856232.788742, 1488856232.788742, -1.550049, -0.301880, -0.261963, -59.802521, +69.170509, +145.143860 
1488856232.792485, 1488856232.792485, -1.516357, -0.318604, -0.308105, -59.802521, +69.170509, +145.143860 
1488856232.796236, 1488856232.796236, -1.516357, -0.318604, -0.308105, -49.975861, +64.425026, +138.536804 
1488856232.799983, 1488856232.799983, -1.516357, -0.318604, -0.308105, -49.975861, +64.425026, +138.536804 
1488856232.803776, 1488856232.803776, -1.516357, -0.318604, -0.308105, -49.975861, +64.425026, +138.536804 
1488856232.807729, 1488856232.807729, -1.516357, -0.318604, -0.308105, -43.216217, +61.556374, +128.481262 
1488856232.811679, 1488856232.811679, -1.454590, -0.495239, -0.264038, -43.216217, +61.556374, +128.481262 
1488856232.815623, 1488856232.815623, -1.454590, -0.495239, -0.264038, -43.216217, +61.556374, +114.092232 
1488856232.819564, 1488856232.819564, -1.454590, -0.495239, -0.264038, -36.105621, +59.511696, +114.092232 
1488856232.823518, 1488856232.823518, -1.454590, -0.495239, -0.264038, -36.105621, +59.511696, +114.092232 
1488856232.827464, 1488856232.827464, -1.454590, -0.495239, -0.264038, -25.348173, +55.544411, +95.293404 
1488856232.831413, 1488856232.831413, -1.461914, -0.667114, -0.182007, -25.348173, +55.544411, +95.293404 
1488856232.835366, 1488856232.835366, -1.461914, -0.667114, -0.182007, -25.348173, +55.544411, +95.293404 
1488856232.839451, 1488856232.839451, -1.461914, -0.667114, -0.182007, -11.264311, +49.181496, +75.624825 
1488856232.843509, 1488856232.843509, -1.461914, -0.667114, -0.182007, -11.264311, +49.181496, +75.624825 
1488856232.847273, 1488856232.847273, -1.461914, -0.667114, -0.182007, -11.264311, +49.181496, +75.624825 
1488856232.851015, 1488856232.851015, -1.416260, -0.489136, -0.018188, -1.025663, +40.026222, +56.169868 
1488856232.854903, 1488856232.854903, -1.416260, -0.489136, -0.018188, -1.025663, +40.026222, +56.169868 
1488856232.858844, 1488856232.858844, -1.416260, -0.489136, -0.018188, -1.025663, +40.026222, +32.732368 
1488856232.862781, 1488856232.862781, -1.416260, -0.489136, -0.018188, +0.744356, +27.636084, +33.800484 
1488856232.866731, 1488856232.866731, -1.416260, -0.489136, -0.018188, +0.744356, +27.636084, +33.800484 
1488856232.870673, 1488856232.870673, -1.477173, -0.593872, +0.227051, -3.467070, +12.484106, +5.220772 
1488856232.874536, 1488856232.874536, -1.477173, -0.593872, +0.227051, -3.467070, +12.484106, +5.220772 
1488856232.878276, 1488856232.878276, -1.477173, -0.593872, +0.227051, -3.467070, +12.484106, +5.220772 
1488856232.882018, 1488856232.882018, -1.477173, -0.593872, +0.227051, -12.408720, -3.705469, -26.197075 
1488856232.885798, 1488856232.885798, -1.477173, -0.593872, +0.227051, -12.408720, -3.705469, -26.197075 
1488856232.889544, 1488856232.889544, -1.477173, -0.593872, +0.178223, -12.408720, -3.705469, -26.197075 
1488856232.893425, 1488856232.893425, -1.491455, -0.654419, +0.178223, -18.359648, -18.247095, -56.592583 
1488856232.897287, 1488856232.897287, -1.491455, -0.654419, +0.178223, -18.359648, -18.247095, -56.592583 
1488856232.901033, 1488856232.901033, -1.491455, -0.654419, +0.178223, -18.359648, -18.247095, -56.592583 
1488856232.905021, 1488856232.905021, -1.491455, -0.654419, +0.178223, -23.944365, -31.995264, -86.118340 
1488856232.908966, 1488856232.908966, -1.491455, -0.654419, +0.178223, -23.944365, -31.995264, -86.118340 
1488856232.912907, 1488856232.912907, -1.475708, -0.488647, +0.102783, -23.944365, -31.995264, -86.118340 
1488856232.916898, 1488856232.916898, -1.475708, -0.488647, +0.102783, -31.207548, -41.913475, -113.233208 
1488856232.920843, 1488856232.920843, -1.475708, -0.488647, +0.102783, -31.207548, -41.913475, -113.233208 
1488856232.924793, 1488856232.924793, -1.475708, -0.488647, +0.102783, -31.207548, -39.609398, -122.449516 
1488856232.928727, 1488856232.928727, -1.475708, -0.488647, +0.102783, -50.693024, -39.609398, -122.449516 
1488856232.932666, 1488856232.932666, -0.738037, +2.115112, -1.210449, -50.693024, -39.609398, -122.449516 
1488856232.936603, 1488856232.936603, -0.738037, +2.115112, -1.210449, -80.325592, -27.799097, -94.251274 
1488856232.940547, 1488856232.940547, -0.738037, +2.115112, -1.210449, -80.325592, -27.799097, -94.251274 
1488856232.944434, 1488856232.944434, -0.738037, +2.115112, -1.210449, -80.325592, -27.799097, -94.251274 
1488856232.948179, 1488856232.948179, -0.738037, +2.115112, -1.210449, -39.935577, -13.089624, -46.064018 
1488856232.951926, 1488856232.951926, -1.021118, +1.092896, -0.352539, -39.935577, -13.089624, -46.064018 
1488856232.955816, 1488856232.955816, -1.021118, +1.092896, -0.352539, -39.935577, -13.089624, -46.064018 
1488856232.959889, 1488856232.959889, -1.021118, +1.092896, -0.352539, +26.791109, +2.626928, -28.836845 
1488856232.964265, 1488856232.964265, -1.021118, +1.092896, -0.352539, +26.791109, +2.626928, -28.836845 
1488856232.968205, 1488856232.968205, -1.021118, +1.092896, -0.352539, +26.791109, -12.998072, -63.214897 
1488856232.972147, 1488856232.972147, -2.052246, -1.062378, +0.596680, -4.138456, -15.393702, -63.214897 
1488856232.976093, 1488856232.976093, -2.052246, -1.062378, +0.596680, -4.138456, -15.393702, -63.214897 
1488856232.980030, 1488856232.980030, -2.052246, -1.062378, +0.596680, -55.911530, -27.326075, -101.316093 
1488856232.983986, 1488856232.983986, -2.052246, -1.062378, +0.596680, -55.911530, -27.326075, -101.316093 
1488856232.987938, 1488856232.987938, -2.052246, -1.062378, +0.596680, -55.911530, -27.326075, -101.316093 
1488856232.991885, 1488856232.991885, -1.483398, +0.272095, -0.830811, -70.712555, -17.240015, -109.189629 
1488856232.995691, 1488856232.995691, -1.483398, +0.272095, -0.830811, -70.712555, -17.240015, -109.189629 
1488856232.999444, 1488856232.999444, -1.483398, +0.272095, -0.830811, -70.712555, -17.240015, -109.189629 
1488856233.003253, 1488856233.003253, -1.483398, +0.272095, -0.830811, -57.467926, -7.230249, -110.349297 
1488856233.007001, 1488856233.007001, -1.483398, +0.272095, -0.830811, -57.467926, -7.230249, -110.349297 
1488856233.010753, 1488856233.010753, -1.374878, -0.004517, -0.287964, -57.467926, -7.230249, -110.349297 
1488856233.014604, 1488856233.014604, -1.374878, -0.004517, -0.287964, -38.653839, -13.104883, -113.294243 
1488856233.018353, 1488856233.018353, -1.374878, -0.004517, -0.287964, -38.653839, -13.104883, -113.294243 
1488856233.022100, 1488856233.022100, -1.374878, -0.004517, -0.287964, -38.653839, -13.104883, -113.294243 
1488856233.026111, 1488856233.026111, -1.374878, -0.004517, -0.287964, -25.714384, -23.007837, -111.463188 
1488856233.030055, 1488856233.030055, -1.026855, -0.224976, -0.476562, -25.714384, -23.007837, -111.463188 
1488856233.033955, 1488856233.033955, -1.026855, -0.224976, -0.476562, -6.183134, -28.058496, -102.719902 
1488856233.037699, 1488856233.037699, -1.026855, -0.224976, -0.476562, -7.144438, -28.058496, -102.719902 
1488856233.041443, 1488856233.041443, -1.026855, -0.224976, -0.476562, -7.144438, -28.058496, -102.719902 
1488856233.045438, 1488856233.045438, -1.026855, -0.224976, -0.476562, +17.788424, -26.441065, -92.694878 
1488856233.049386, 1488856233.049386, -0.855103, -0.108154, -0.747559, +17.788424, -26.441065, -92.694878 
1488856233.053333, 1488856233.053333, -0.855103, -0.108154, -0.747559, +17.788424, -26.441065, -92.694878 
1488856233.057082, 1488856233.057082, -0.855103, -0.108154, -0.747559, +47.420990, -25.708643, -82.120537 
1488856233.060835, 1488856233.060835, -0.855103, -0.108154, -0.747559, +47.420990, -25.708643, -82.120537 
1488856233.064727, 1488856233.064727, -0.855103, -0.108154, -0.747559, +47.420990, -25.708643, -82.120537 
1488856233.068663, 1488856233.068663, -0.855103, -0.098755, -0.306519, +62.847626, -29.202906, -75.299858 
1488856233.072609, 1488856233.072609, -1.086792, -0.098755, -0.306519, +62.847626, -29.202906, -75.299858 
1488856233.076570, 1488856233.076570, -1.086792, -0.098755, -0.306519, +62.847626, -29.202906, -67.487358 
1488856233.080602, 1488856233.080602, -1.086792, -0.098755, -0.306519, +62.328827, -33.109154, -69.791435 
1488856233.084753, 1488856233.084753, -1.086792, -0.098755, -0.306519, +62.328827, -33.109154, -69.791435 
1488856233.088506, 1488856233.088506, -1.086792, +0.203857, -0.429810, +57.278168, -35.184349, -62.955498 
1488856233.092247, 1488856233.092247, -1.055298, +0.203857, -0.429810, +57.278168, -35.184349, -62.955498 
1488856233.096165, 1488856233.096165, -1.055298, +0.203857, -0.429810, +57.278168, -35.184349, -62.955498 
1488856233.100107, 1488856233.100107, -1.055298, +0.203857, -0.429810, +49.679291, -32.803978, -59.110283 
1488856233.104101, 1488856233.104101, -1.055298, +0.203857, -0.429810, +49.679291, -32.803978, -59.110283 
1488856233.108053, 1488856233.108053, -1.055298, +0.141357, -0.241699, +49.679291, -32.803978, -59.110283 
1488856233.112001, 1488856233.112001, -1.234741, +0.153198, -0.241699, +40.615570, -29.355494, -58.698296 
1488856233.115818, 1488856233.115818, -1.234741, +0.153198, -0.241699, +40.615570, -29.355494, -58.698296 
1488856233.119565, 1488856233.119565, -1.234741, +0.153198, -0.241699, +40.615570, -29.355494, -58.698296 
1488856233.123324, 1488856233.123324, -1.234741, +0.153198, -0.241699, +25.677217, -28.897730, -58.148979 
1488856233.127076, 1488856233.127076, -1.234741, +0.153198, -0.241699, +25.677217, -28.897730, -58.148979 
1488856233.130823, 1488856233.130823, -1.183350, +0.061401, -0.265259, +25.677217, -28.897730, -58.148979 
1488856233.134748, 1488856233.134748, -1.183350, +0.061401, -0.265259, +14.980806, -29.080835, -57.721733 
1488856233.138499, 1488856233.138499, -1.183350, +0.061401, -0.265259, +14.980806, -29.080835, -57.721733 
1488856233.142247, 1488856233.142247, -1.183350, +0.061401, -0.265259, +14.980806, -29.080835, -54.685234 
1488856233.146232, 1488856233.146232, -1.183350, +0.061401, -0.265259, +13.012423, -26.715723, -54.685234 
1488856233.150156, 1488856233.150156, -1.116211, -0.021973, -0.314087, +13.012423, -26.715723, -54.685234 
1488856233.154090, 1488856233.154090, -1.116211, -0.021973, -0.314087, +14.156832, -25.250879, -49.985527 
1488856233.158009, 1488856233.158009, -1.116211, -0.021973, -0.314087, +14.156832, -25.250879, -49.985527 
1488856233.161924, 1488856233.161924, -1.116211, -0.021973, -0.314087, +14.156832, -25.250879, -49.985527 
1488856233.165889, 1488856233.165889, -1.116211, -0.021973, -0.314087, +19.299044, -24.335352, -43.836235 
1488856233.169816, 1488856233.169816, -1.067017, -0.192749, -0.310059, +19.299044, -24.335352, -43.836235 
1488856233.173742, 1488856233.173742, -1.067017, -0.192749, -0.310059, +19.299044, -24.335352, -43.836235 
1488856233.177663, 1488856233.177663, -1.067017, -0.192749, -0.310059, +25.173677, -23.725000, -36.786674 
1488856233.181581, 1488856233.181581, -1.067017, -0.192749, -0.310059, +25.173677, -23.725000, -36.786674 
1488856233.185510, 1488856233.185510, -1.067017, -0.192749, -0.310059, +25.173677, -23.725000, -28.974174 
1488856233.189428, 1488856233.189428, -1.006836, -0.125854, -0.311523, +31.170382, -21.954981, -29.798149 
1488856233.193471, 1488856233.193471, -1.006836, -0.125854, -0.311523, +31.170382, -21.954981, -29.798149 
1488856233.197397, 1488856233.197397, -1.006836, -0.125854, -0.311523, +34.206879, -19.345728, -23.679375 
1488856233.201434, 1488856233.201434, -1.006836, -0.125854, -0.311523, +34.206879, -19.345728, -23.679375 
1488856233.205769, 1488856233.205769, -1.006836, -0.125854, -0.311523, +34.206879, -19.345728, -23.679375 
1488856233.209656, 1488856233.209656, -1.046875, -0.031372, -0.284790, +34.267914, -17.117945, -19.239067 
1488856233.213672, 1488856233.213672, -1.046875, -0.031372, -0.284790, +34.267914, -17.117945, -19.239067 
1488856233.217618, 1488856233.217618, -1.046875, -0.031372, -0.284790, +34.267914, -17.117945, -19.239067 
1488856233.221559, 1488856233.221559, -1.046875, -0.031372, -0.284790, +29.583467, -15.485254, -18.399834 
1488856233.225509, 1488856233.225509, -1.046875, -0.031372, -0.284790, +29.583467, -15.485254, -18.399834 
1488856233.229453, 1488856233.229453, -1.081543, +0.070312, -0.251831, +29.583467, -15.485254, -18.766045 
1488856233.233383, 1488856233.233383, -1.081543, +0.070312, -0.251831, +22.076143, -14.584986, -18.766045 
1488856233.237125, 1488856233.237125, -1.081543, +0.070312, -0.251831, +22.076143, -14.584986, -18.766045 
1488856233.240877, 1488856233.240877, -1.081543, +0.070312, -0.251831, +14.263643, -13.379541, -18.888115 
1488856233.244658, 1488856233.244658, -1.081543, +0.070312, -0.251831, +15.423311, -13.379541, -18.888115 
1488856233.248405, 1488856233.248405, -1.057373, -0.001343, -0.306030, +15.423311, -13.379541, -18.888115 
1488856233.252147, 1488856233.252147, -1.057373, -0.001343, -0.306030, +10.845675, -13.028589, -18.399834 
1488856233.256065, 1488856233.256065, -1.057373, -0.001343, -0.306030, +10.845675, -13.028589, -18.399834 
1488856233.259816, 1488856233.259816, -1.057373, -0.001343, -0.306030, +10.845675, -13.028589, -18.399834 
1488856233.263689, 1488856233.263689, -1.057373, -0.001343, -0.306030, +11.532320, -13.425318, -18.643974 
1488856233.267628, 1488856233.267628, -1.090210, -0.043213, -0.343262, +11.532320, -13.425318, -18.643974 
1488856233.271574, 1488856233.271574, -1.090210, -0.043213, -0.343262, +11.532320, -13.425318, -18.643974 
1488856233.275534, 1488856233.275534, -1.090210, -0.043213, -0.343262, +12.691988, -13.303247, -17.896294 
1488856233.279477, 1488856233.279477, -1.090210, -0.043213, -0.343262, +12.691988, -13.303247, -17.896294 
1488856233.283447, 1488856233.283447, -1.090210, -0.043213, -0.343262, +12.691988, -13.303247, -17.896294 
1488856233.287192, 1488856233.287192, -1.058960, -0.063965, -0.346558, +14.690889, -13.532129, -16.858696 
1488856233.290942, 1488856233.290942, -1.051514, -0.063965, -0.346558, +14.690889, -13.532129, -16.858696 
1488856233.294787, 1488856233.294787, -1.051514, -0.063965, -0.346558, +14.690889, -13.532129, -16.461967 
1488856233.298725, 1488856233.298725, -1.051514, -0.063965, -0.346558, +16.598238, -13.791529, -16.461967 
1488856233.302662, 1488856233.302662, -1.051514, -0.063965, -0.346558, +16.598238, -13.791529, -16.461967 
1488856233.306609, 1488856233.306609, -1.051514, +0.029785, -0.345947, +16.521944, -14.829126, -16.492485 
1488856233.310556, 1488856233.310556, -1.082764, +0.028564, -0.345947, +16.521944, -14.829126, -16.492485 
1488856233.314514, 1488856233.314514, -1.082764, +0.028564, -0.345947, +16.521944, -14.829126, -16.492485 
1488856233.318458, 1488856233.318458, -1.082764, +0.028564, -0.345947, +13.988985, -16.065088, -17.118095 
1488856233.322931, 1488856233.322931, -1.082764, +0.028564, -0.345947, +13.988985, -16.065088, -17.118095 
1488856233.326940, 1488856233.326940, -1.114014, -0.082886, -0.349365, +13.988985, -16.065088, -17.118095 
1488856233.330885, 1488856233.330885, -1.099731, -0.082886, -0.349365, +11.333956, -16.431299, -18.766045 
1488856233.334785, 1488856233.334785, -1.099731, -0.082886, -0.349365, +11.333956, -16.431299, -18.766045 
1488856233.338532, 1488856233.338532, -1.099731, -0.082886, -0.349365, +11.333956, -20.337549, -19.956230 
1488856233.342385, 1488856233.342385, -1.099731, -0.082886, -0.349365, +10.296358, -17.468897, -19.956230 
1488856233.346341, 1488856233.346341, -1.099731, -0.051636, -0.370728, +10.296358, -17.468897, -19.956230 
1488856233.350288, 1488856233.350288, -1.090088, -0.055908, -0.370728, +11.913790, -18.445459, -20.032524 
1488856233.354224, 1488856233.354224, -1.090088, -0.055908, -0.370728, +11.913790, -18.445459, -20.032524 
1488856233.357972, 1488856233.357972, -1.090088, -0.055908, -0.370728, +11.913790, -18.445459, -20.032524 
1488856233.361712, 1488856233.361712, -1.090088, -0.055908, -0.370728, +13.576998, -19.116846, -19.544243 
1488856233.365539, 1488856233.365539, -1.090088, -0.055908, -0.370728, +13.576998, -19.116846, -19.544243 
1488856233.369290, 1488856233.369290, -1.092163, -0.067871, -0.343628, +13.576998, -19.116846, -19.544243 
1488856233.373118, 1488856233.373118, -1.092163, -0.067871, -0.343628, +13.927950, -18.979517, -19.757866 
1488856233.377065, 1488856233.377065, -1.092163, -0.067871, -0.343628, +13.927950, -18.979517, -19.757866 
1488856233.381000, 1488856233.381000, -1.092163, -0.067871, -0.343628, +13.927950, -18.979517, -19.757866 
1488856233.384867, 1488856233.384867, -1.092163, -0.067871, -0.343628, +13.821138, -19.971338, -20.154594 
1488856233.388611, 1488856233.388611, -1.132812, -0.096069, -0.305176, +13.821138, -19.971338, -20.154594 
1488856233.392362, 1488856233.392362, -1.132812, -0.096069, -0.305176, +13.821138, -19.971338, -20.154594 
1488856233.396300, 1488856233.396300, -1.132812, -0.096069, -0.305176, +13.622774, -20.810572, -20.200371 
1488856233.400220, 1488856233.400220, -1.132812, -0.096069, -0.305176, +13.622774, -20.810572, -20.200371 
1488856233.404147, 1488856233.404147, -1.132812, -0.096069, -0.305176, +13.622774, -21.512476, -19.544243 
1488856233.408065, 1488856233.408065, -1.139526, -0.109619, -0.298584, +14.843477, -21.512476, -19.544243 
1488856233.411980, 1488856233.411980, -1.139526, -0.109619, -0.298584, +14.843477, -21.512476, -19.544243 
1488856233.415945, 1488856233.415945, -1.139526, -0.109619, -0.298584, +16.308321, -22.672144, -19.727348 
1488856233.419862, 1488856233.419862, -1.139526, -0.109619, -0.298584, +16.308321, -22.672144, -19.727348 
1488856233.423785, 1488856233.423785, -1.139526, -0.109619, -0.298584, +16.308321, -22.672144, -19.727348 
1488856233.427669, 1488856233.427669, -1.136108, -0.062134, -0.336182, +17.132296, -23.465601, -20.276665 
1488856233.431730, 1488856233.431730, -1.136108, -0.062134, -0.336182, +17.132296, -23.465601, -20.276665 
1488856233.435976, 1488856233.435976, -1.136108, -0.062134, -0.336182, +17.132296, -23.465601, -20.276665 
1488856233.439727, 1488856233.439727, -1.136108, -0.062134, -0.336182, +16.308321, -24.289576, -21.421074 
1488856233.443522, 1488856233.443522, -1.136108, -0.062134, -0.336182, +16.308321, -24.289576, -21.421074 
1488856233.447466, 1488856233.447466, -1.142944, -0.114136, -0.312134, +16.308321, -24.991480, -22.245049 
1488856233.451415, 1488856233.451415, -1.142944, -0.114136, -0.312134, +14.202608, -24.991480, -22.245049 
1488856233.455373, 1488856233.455373, -1.142944, -0.114136, -0.312134, +14.202608, -24.991480, -22.245049 
1488856233.459313, 1488856233.459313, -1.142944, -0.114136, -0.312134, +14.889254, -26.288477, -23.221611 
1488856233.463256, 1488856233.463256, -1.142944, -0.114136, -0.312134, +14.889254, -26.288477, -23.221611 
1488856233.467001, 1488856233.467001, -1.147217, -0.082031, -0.319458, +14.889254, -26.288477, -23.221611 
1488856233.470752, 1488856233.470752, -1.147217, -0.082031, -0.319458, +17.330660, -28.378931, -24.259209 
1488856233.474516, 1488856233.474516, -1.147217, -0.082031, -0.319458, +17.330660, -28.378931, -24.259209 
1488856233.478268, 1488856233.478268, -1.147217, -0.082031, -0.319458, +17.330660, -28.378931, -24.259209 
1488856233.482030, 1488856233.482030, -1.147217, -0.082031, -0.319458, +19.726290, -30.026880, -25.342583 
1488856233.485910, 1488856233.485910, -1.160400, -0.085449, -0.320679, +19.726290, -30.026880, -25.342583 
1488856233.489668, 1488856233.489668, -1.160400, -0.085449, -0.320679, +19.726290, -30.026880, -25.342583 
1488856233.493700, 1488856233.493700, -1.160400, -0.085449, -0.320679, +20.946993, -32.468285, -27.265190 
1488856233.497624, 1488856233.497624, -1.160400, -0.085449, -0.320679, +20.946993, -32.468285, -27.265190 
1488856233.501548, 1488856233.501548, -1.160400, -0.085449, -0.320679, +20.946993, -32.468285, -29.904961 
1488856233.505478, 1488856233.505478, -1.129150, -0.021606, -0.394287, +20.840181, -35.321678, -29.904961 
1488856233.509394, 1488856233.509394, -1.146729, -0.021606, -0.394287, +20.840181, -35.321678, -29.904961 
1488856233.513316, 1488856233.513316, -1.146729, -0.021606, -0.394287, +19.634737, -37.305321, -32.621025 
1488856233.517235, 1488856233.517235, -1.146729, -0.021606, -0.394287, +19.634737, -37.305321, -32.621025 
1488856233.521154, 1488856233.521154, -1.146729, -0.021606, -0.394287, +19.634737, -37.305321, -32.621025 
1488856233.525070, 1488856233.525070, -1.146729, -0.140381, -0.373657, +19.588961, -39.304222, -34.803032 
1488856233.528956, 1488856233.528956, -1.177246, -0.140381, -0.373657, +19.588961, -39.304222, -34.803032 
1488856233.532837, 1488856233.532837, -1.177246, -0.140381, -0.373657, +19.588961, -39.304222, -34.803032 
1488856233.536805, 1488856233.536805, -1.177246, -0.140381, -0.373657, +22.717012, -41.745628, -37.213921 
1488856233.540558, 1488856233.540558, -1.177246, -0.140381, -0.373657, +22.717012, -41.745628, -37.213921 
1488856233.544389, 1488856233.544389, -1.177246, -0.140381, -0.368408, +22.717012, -41.745628, -37.213921 
1488856233.548335, 1488856233.548335, -1.184082, -0.129395, -0.368408, +27.081026, -44.797386, -38.968681 
1488856233.552874, 1488856233.552874, -1.184082, -0.129395, -0.368408, +27.081026, -44.797386, -38.968681 
1488856233.556831, 1488856233.556831, -1.184082, -0.129395, -0.368408, +30.682100, -47.025169, -40.692924 
1488856233.560776, 1488856233.560776, -1.184082, -0.129395, -0.368408, +30.682100, -47.025169, -40.692924 
1488856233.564729, 1488856233.564729, -1.184082, -0.072144, -0.318359, +30.682100, -47.025169, -40.692924 
1488856233.568670, 1488856233.568670, -1.189087, -0.072144, -0.318359, +30.407442, -49.939598, -42.615532 
1488856233.572613, 1488856233.572613, -1.189087, -0.072144, -0.318359, +30.407442, -49.939598, -42.615532 
1488856233.576566, 1488856233.576566, -1.189087, -0.072144, -0.318359, +30.407442, -49.939598, -42.615532 
1488856233.580511, 1488856233.580511, -1.189087, -0.072144, -0.318359, +29.125704, -52.915062, -45.987724 
1488856233.584437, 1488856233.584437, -1.189087, -0.103394, -0.272339, +29.125704, -52.915062, -45.987724 
1488856233.588193, 1488856233.588193, -1.249390, -0.102051, -0.272339, +29.125704, -52.915062, -45.987724 
1488856233.591948, 1488856233.591948, -1.249390, -0.102051, -0.272339, +29.644503, -55.829491, -49.008965 
1488856233.595879, 1488856233.595879, -1.249390, -0.102051, -0.272339, +29.644503, -55.829491, -49.008965 
1488856233.599633, 1488856233.599633, -1.249390, -0.102051, -0.272339, +29.644503, -55.829491, -50.687431 
1488856233.603419, 1488856233.603419, -1.249390, -0.102051, -0.272339, +30.682100, -58.469261, -50.687431 
1488856233.607360, 1488856233.607360, -1.245361, -0.121094, -0.252808, +30.682100, -58.469261, -50.687431 
1488856233.611307, 1488856233.611307, -1.245361, -0.121094, -0.252808, +31.658663, -60.193504, -53.052544 
1488856233.615293, 1488856233.615293, -1.245361, -0.121094, -0.252808, +31.658663, -60.193504, -53.052544 
1488856233.619235, 1488856233.619235, -1.245361, -0.121094, -0.252808, +31.658663, -60.193504, -53.052544 
1488856233.623232, 1488856233.623232, -1.245361, -0.121094, -0.252808, +33.627045, -62.863792, -56.424736 
1488856233.627177, 1488856233.627177, -1.298462, -0.032837, -0.252441, +33.627045, -62.863792, -56.424736 
1488856233.631126, 1488856233.631126, -1.298462, -0.032837, -0.252441, +33.627045, -62.863792, -56.424736 
1488856233.634987, 1488856233.634987, -1.298462, -0.032837, -0.252441, +34.023773, -66.525902, -59.781670 
1488856233.638738, 1488856233.638738, -1.298462, -0.032837, -0.252441, +34.023773, -66.525902, -59.781670 
1488856233.642596, 1488856233.642596, -1.298462, -0.032837, -0.252441, +34.023773, -66.525902, -59.781670 
1488856233.646428, 1488856233.646428, -1.307007, +0.075317, -0.302124, +34.664642, -70.569481, -60.865044 
1488856233.650187, 1488856233.650187, -1.307007, +0.075317, -0.302124, +34.664642, -70.569481, -60.865044 
1488856233.654061, 1488856233.654061, -1.307007, +0.075317, -0.302124, +34.664642, -70.569481, -65.946220 
1488856233.657954, 1488856233.657954, -1.307007, +0.075317, -0.302124, +31.094088, -73.285545, -65.946220 
1488856233.662024, 1488856233.662024, -1.307007, +0.075317, -0.302124, +31.094088, -73.285545, -65.946220 
1488856233.666308, 1488856233.666308, -1.469360, +0.155518, -0.494141, +27.905001, -73.987450, -74.277519 
1488856233.670237, 1488856233.670237, -1.469360, +0.155518, -0.494141, +27.905001, -73.987450, -74.277519 
1488856233.674208, 1488856233.674208, -1.469360, +0.155518, -0.494141, +27.905001, -73.987450, -74.277519 
1488856233.678151, 1488856233.678151, -1.469360, +0.155518, -0.494141, +31.231417, -76.779808, -77.558159 
1488856233.682097, 1488856233.682097, -1.469360, +0.155518, -0.494141, +31.231417, -76.779808, -77.558159 
1488856233.685936, 1488856233.685936, -1.505615, -0.028198, -0.420166, +31.231417, -76.779808, -77.558159 
1488856233.689684, 1488856233.689684, -1.505615, -0.028198, -0.420166, +38.464081, -78.717674, -78.565239 
1488856233.693475, 1488856233.693475, -1.505615, -0.028198, -0.420166, +38.464081, -78.717674, -78.565239 
1488856233.697227, 1488856233.697227, -1.505615, -0.028198, -0.420166, +38.464081, -78.717674, -78.565239 
1488856233.700975, 1488856233.700975, -1.505615, -0.028198, -0.420166, +50.823700, -82.074608, -82.196831 
1488856233.704736, 1488856233.704736, -1.664185, +0.228271, -0.671021, +50.823700, -82.074608, -82.196831 
1488856233.708484, 1488856233.708484, -1.664185, +0.228271, -0.671021, +50.823700, -82.074608, -86.606621 
1488856233.712237, 1488856233.712237, -1.664185, +0.228271, -0.671021, +67.959320, -85.645164, -86.606621 
1488856233.716130, 1488856233.716130, -1.664185, +0.228271, -0.671021, +67.959320, -85.645164, -86.606621 
1488856233.719882, 1488856233.719882, -1.664185, +0.228271, -0.671021, +67.959320, -88.452782, -86.194633 
1488856233.723805, 1488856233.723805, -1.726685, +0.362305, -0.542969, +82.165253, -88.452782, -86.194633 
1488856233.727750, 1488856233.727750, -1.735718, +0.362305, -0.542969, +82.165253, -88.452782, -86.194633 
1488856233.731692, 1488856233.731692, -1.735718, +0.362305, -0.542969, +96.188080, -90.894188, -83.234428 
1488856233.735549, 1488856233.735549, -1.735718, +0.362305, -0.542969, +96.188080, -90.894188, -83.234428 
1488856233.739302, 1488856233.739302, -1.735718, +0.362305, -0.542969, +96.188080, -90.894188, -83.234428 
1488856233.743024, 1488856233.743024, -1.735718, +0.362305, -0.471558, +103.008759, -94.708885, -82.135796 
1488856233.746961, 1488856233.746961, -1.790283, +0.192139, -0.471558, +103.008759, -94.708885, -82.135796 
1488856233.750899, 1488856233.750899, -1.790283, +0.192139, -0.471558, +103.008759, -94.708885, -82.135796 
1488856233.754814, 1488856233.754814, -1.790283, +0.192139, -0.471558, +96.996796, -98.920311, -83.280205 
1488856233.758566, 1488856233.758566, -1.790283, +0.192139, -0.471558, +96.996796, -98.920311, -83.280205 
1488856233.762312, 1488856233.762312, -1.790283, +0.192139, -0.471558, +96.996796, -98.920311, -83.280205 
1488856233.766234, 1488856233.766234, -1.562500, +0.203857, -0.619385, +74.978363, -104.169334, -86.392998 
1488856233.770178, 1488856233.770178, -1.562500, +0.203857, -0.619385, +74.978363, -104.169334, -86.392998 
1488856233.774083, 1488856233.774083, -1.562500, +0.203857, -0.619385, +74.978363, -104.169334, -87.506889 
1488856233.777831, 1488856233.777831, -1.562500, +0.203857, -0.619385, +44.521820, -103.116478, -87.506889 
1488856233.781776, 1488856233.781776, -1.562500, +0.203857, -0.619385, +44.521820, -103.116478, -87.506889 
1488856233.786105, 1488856233.786105, -1.240845, -0.036011, -0.565918, +13.180269, -94.373192, -87.812065 
1488856233.790161, 1488856233.790161, -1.240845, -0.036011, -0.565918, +13.180269, -94.373192, -87.812065 
1488856233.794125, 1488856233.794125, -1.240845, -0.036011, -0.565918, +13.180269, -94.373192, -87.812065 
1488856233.798063, 1488856233.798063, -1.240845, -0.036011, -0.565918, -6.885038, -84.607567, -85.279106 
1488856233.802012, 1488856233.802012, -1.240845, -0.036011, -0.565918, -6.885038, -84.607567, -85.279106 
1488856233.805961, 1488856233.805961, -0.941772, -0.387207, -0.300659, -6.885038, -84.607567, -85.279106 
1488856233.809903, 1488856233.809903, -0.941772, -0.387207, -0.300659, -18.039213, -74.750389, -80.731987 
1488856233.813860, 1488856233.813860, -0.941772, -0.387207, -0.300659, -18.039213, -74.750389, -80.731987 
1488856233.817610, 1488856233.817610, -0.941772, -0.387207, -0.300659, -18.039213, -63.031639, -72.080254 
1488856233.821361, 1488856233.821361, -0.941772, -0.387207, -0.300659, -11.966215, -60.285057, -72.080254 
1488856233.825112, 1488856233.825112, -0.756592, -1.000977, -0.035034, -11.966215, -60.285057, -72.080254 
1488856233.828864, 1488856233.828864, -0.756592, -1.000977, -0.035034, +11.471285, -38.876976, -56.089043 
1488856233.832617, 1488856233.832617, -0.756592, -1.000977, -0.035034, +11.303438, -38.876976, -56.089043 
1488856233.836489, 1488856233.836489, -0.756592, -1.000977, -0.035034, +11.303438, -38.876976, -56.089043 
1488856233.840244, 1488856233.840244, -0.756592, -1.000977, -0.035034, +44.003021, -25.907007, -35.749077 
1488856233.844201, 1488856233.844201, -0.586304, -0.355225, -0.453003, +44.003021, -25.907007, -35.749077 
1488856233.848143, 1488856233.848143, -0.586304, -0.355225, -0.453003, +44.003021, -25.907007, -35.749077 
1488856233.852082, 1488856233.852082, -0.586304, -0.355225, -0.453003, +63.030731, -18.430201, -15.271782 
1488856233.856029, 1488856233.856029, -0.586304, -0.355225, -0.453003, +63.030731, -18.430201, -15.271782 
1488856233.859973, 1488856233.859973, -0.586304, -0.355225, -0.453003, +63.030731, -18.430201, -15.271782 
1488856233.863934, 1488856233.863934, -0.168701, +0.476562, -0.357788, +64.495575, -11.701075, +5.556465 
1488856233.867877, 1488856233.867877, -0.168701, +0.476562, -0.357788, +64.495575, -11.701075, +5.556465 
1488856233.871819, 1488856233.871819, -0.168701, +0.476562, -0.357788, +64.495575, -11.701075, +28.719307 
1488856233.875643, 1488856233.875643, -0.168701, +0.476562, -0.357788, +67.135345, -3.247705, +28.719307 
1488856233.879390, 1488856233.879390, -0.168701, +0.476562, -0.357788, +67.135345, -3.247705, +28.719307 
1488856233.883139, 1488856233.883139, -0.134644, +0.499634, +0.080322, +67.135345, +6.380590, +46.862007 
1488856233.887088, 1488856233.887088, -0.134644, +0.499634, +0.080322, +54.638397, +6.380590, +46.862007 
1488856233.891027, 1488856233.891027, -0.134644, +0.499634, +0.080322, +54.638397, +6.380590, +46.862007 
1488856233.894984, 1488856233.894984, -0.134644, +0.499634, +0.080322, +33.276093, +17.458471, +59.481026 
1488856233.898929, 1488856233.898929, -0.134644, +0.499634, +0.080322, +33.276093, +17.458471, +59.481026 
1488856233.903405, 1488856233.903405, -0.260376, +0.151123, -0.048462, +33.276093, +17.458471, +59.481026 
1488856233.907367, 1488856233.907367, -0.260376, +0.151123, -0.048462, +17.040743, +33.510719, +71.138741 
1488856233.911310, 1488856233.911310, -0.260376, +0.151123, -0.048462, +17.040743, +33.510719, +71.138741 
1488856233.915188, 1488856233.915188, -0.260376, +0.151123, -0.048462, +17.040743, +33.510719, +86.763741 
1488856233.918942, 1488856233.918942, -0.260376, +0.151123, -0.048462, +13.012423, +53.713356, +85.253120 
1488856233.922690, 1488856233.922690, -0.406250, +0.143433, -0.078491, +13.012423, +53.713356, +85.253120 
1488856233.926639, 1488856233.926639, -0.406250, +0.143433, -0.078491, +13.012423, +69.811378, +101.442696 
1488856233.930587, 1488856233.930587, -0.406250, +0.143433, -0.078491, +11.349215, +69.811378, +101.442696 
1488856233.934473, 1488856233.934473, -0.406250, +0.143433, -0.078491, +11.349215, +69.811378, +101.442696 
1488856233.938220, 1488856233.938220, -0.406250, +0.143433, -0.078491, +15.209688, +84.063087, +116.564156 
1488856233.942076, 1488856233.942076, -0.437500, +0.431763, -0.125366, +15.209688, +84.063087, +116.564156 
1488856233.945838, 1488856233.945838, -0.409180, +0.431763, -0.125366, +15.209688, +84.063087, +116.564156 
1488856233.949587, 1488856233.949587, -0.409180, +0.431763, -0.125366, -0.400053, +98.040138, +127.306343 
1488856233.953502, 1488856233.953502, -0.409180, +0.431763, -0.125366, -0.400053, +98.040138, +127.306343 
1488856233.957265, 1488856233.957265, -0.409180, +0.431763, -0.125366, -0.400053, +98.040138, +127.306343 
1488856233.961013, 1488856233.961013, -0.409180, +0.431763, +0.124634, -30.826078, +116.198097, +129.961365 
1488856233.964933, 1488856233.964933, -0.620483, +0.445801, +0.119507, -30.826078, +116.198097, +129.961365 
1488856233.968689, 1488856233.968689, -0.620483, +0.445801, +0.119507, -30.826078, +116.198097, +129.961365 
1488856233.972447, 1488856233.972447, -0.620483, +0.445801, +0.119507, -61.450470, +133.104828, +130.632751 
1488856233.976387, 1488856233.976387, -0.620483, +0.445801, +0.119507, -61.450470, +133.104828, +130.632751 
1488856233.980328, 1488856233.980328, -0.620483, +0.445801, +0.119507, -61.450470, +133.104828, +130.632751 
1488856233.984287, 1488856233.984287, -0.951416, +0.178589, -0.015869, -69.568146, +139.345673, +136.568420 
1488856233.988223, 1488856233.988223, -0.951416, +0.178589, -0.015869, -69.568146, +139.345673, +136.568420 
1488856233.992170, 1488856233.992170, -0.951416, +0.178589, -0.015869, -57.849396, +131.960419, +148.622864 
1488856233.995976, 1488856233.995976, -0.951416, +0.178589, -0.015869, -57.300079, +131.960419, +148.622864 
1488856233.999730, 1488856233.999730, -0.951416, +0.178589, -0.015869, -57.300079, +131.960419, +148.622864 
1488856234.003533, 1488856234.003533, -1.187744, +0.066284, +0.036499, -48.419464, +122.652565, +162.737244 
1488856234.007479, 1488856234.007479, -1.187744, +0.066284, +0.036499, -48.419464, +122.652565, +162.737244 
1488856234.011429, 1488856234.011429, -1.187744, +0.066284, +0.036499, -48.419464, +122.652565, +162.737244 
1488856234.015278, 1488856234.015278, -1.187744, +0.066284, +0.036499, -52.402008, +119.600807, +176.378601 
1488856234.019053, 1488856234.019053, -1.187744, +0.066284, +0.036499, -52.402008, +119.600807, +176.378601 
1488856234.022865, 1488856234.022865, -1.284302, +0.033325, -0.111938, -52.402008, +119.600807, +176.378601 
1488856234.027151, 1488856234.027151, -1.284302, +0.033325, -0.111938, -61.496246, +124.041115, +188.661926 
1488856234.031099, 1488856234.031099, -1.284302, +0.033325, -0.111938, -61.496246, +124.041115, +188.661926 
1488856234.035095, 1488856234.035095, -1.284302, +0.033325, -0.111938, -61.496246, +124.041115, +196.596497 
1488856234.039044, 1488856234.039044, -1.284302, +0.033325, -0.111938, -67.737091, +129.656342, +196.596497 
1488856234.043003, 1488856234.043003, -1.353638, -0.140137, -0.198364, -67.737091, +129.656342, +196.596497 
1488856234.046950, 1488856234.046950, -1.353638, -0.140137, -0.198364, -64.914215, +129.686859, +200.090759 
1488856234.050899, 1488856234.050899, -1.353638, -0.140137, -0.198364, -64.914215, +129.686859, +200.090759 
1488856234.054803, 1488856234.054803, -1.353638, -0.140137, -0.198364, -64.914215, +129.686859, +200.090759 
1488856234.058545, 1488856234.058545, -1.353638, -0.140137, -0.198364, -60.504425, +127.657448, +202.333801 
1488856234.062299, 1488856234.062299, -1.477417, -0.204834, -0.221558, -60.504425, +127.657448, +202.333801 
1488856234.066053, 1488856234.066053, -1.477417, -0.204834, -0.221558, -60.504425, +127.657448, +202.333801 
1488856234.069809, 1488856234.069809, -1.477417, -0.204834, -0.221558, -57.742584, +125.353371, +202.318542 
1488856234.073645, 1488856234.073645, -1.477417, -0.204834, -0.221558, -57.742584, +125.353371, +202.318542 
1488856234.077395, 1488856234.077395, -1.477417, -0.204834, -0.221558, -57.742584, +125.353371, +202.318542 
1488856234.081135, 1488856234.081135, -1.664917, -0.233398, -0.204468, -55.987823, +123.796974, +203.615540 
1488856234.085387, 1488856234.085387, -1.674194, -0.233398, -0.204468, -55.987823, +123.796974, +203.615540 
1488856234.089147, 1488856234.089147, -1.674194, -0.233398, -0.204468, -55.987823, +123.796974, +203.615540 
1488856234.092900, 1488856234.092900, -1.674194, -0.233398, -0.204468, -56.720245, +121.752296, +204.790466 
1488856234.096844, 1488856234.096844, -1.674194, -0.233398, -0.204468, -56.720245, +121.752296, +204.790466 
1488856234.101252, 1488856234.101252, -1.715820, -0.205933, -0.166504, -60.626495, +120.119606, +204.439514 
1488856234.105057, 1488856234.105057, -1.715820, -0.205933, -0.166504, -59.695709, +120.119606, +204.439514 
1488856234.108808, 1488856234.108808, -1.715820, -0.205933, -0.166504, -59.695709, +120.119606, +204.439514 
1488856234.112541, 1488856234.112541, -1.715820, -0.205933, -0.166504, -65.799225, +117.449318, +201.372498 
1488856234.116345, 1488856234.116345, -1.715820, -0.205933, -0.166504, -65.799225, +117.449318, +201.372498 
1488856234.120087, 1488856234.120087, -1.715820, -0.205933, -0.225464, -65.799225, +117.449318, +201.372498 
1488856234.123886, 1488856234.123886, -1.646362, -0.100220, -0.225464, -75.931061, +113.451515, +196.215027 
1488856234.127631, 1488856234.127631, -1.646362, -0.100220, -0.225464, -75.931061, +113.451515, +196.215027 
1488856234.131384, 1488856234.131384, -1.646362, -0.100220, -0.225464, -75.931061, +113.451515, +196.215027 
1488856234.135196, 1488856234.135196, -1.646362, -0.100220, -0.225464, -87.924469, +111.391579, +189.073914 
1488856234.138952, 1488856234.138952, -1.646362, -0.100220, -0.225464, -87.924469, +111.391579, +189.073914 
1488856234.142716, 1488856234.142716, -1.648315, -0.167358, -0.275391, -87.924469, +111.391579, +189.073914 
1488856234.146635, 1488856234.146635, -1.648315, -0.167358, -0.275391, -98.651398, +111.238991, +181.429260 
1488856234.150390, 1488856234.150390, -1.648315, -0.167358, -0.275391, -98.651398, +111.238991, +181.429260 
1488856234.154297, 1488856234.154297, -1.648315, -0.167358, -0.275391, -98.651398, +111.238991, +181.429260 
1488856234.158244, 1488856234.158244, -1.648315, -0.167358, -0.275391, -102.878082, +108.751808, +174.150818 
1488856234.162189, 1488856234.162189, -1.821289, -0.301514, -0.253174, -102.878082, +108.751808, +174.150818 
1488856234.165995, 1488856234.165995, -1.821289, -0.301514, -0.253174, -102.878082, +108.751808, +170.000427 
1488856234.169752, 1488856234.169752, -1.821289, -0.301514, -0.253174, -98.422516, +102.037941, +170.000427 
1488856234.173522, 1488856234.173522, -1.821289, -0.301514, -0.253174, -98.422516, +102.037941, +170.000427 
1488856234.177469, 1488856234.177469, -1.821289, -0.301514, -0.253174, -88.702667, +89.571510, +166.475647 
1488856234.181408, 1488856234.181408, -1.801514, -0.305664, -0.314941, -88.702667, +89.571510, +166.475647 
1488856234.185368, 1488856234.185368, -1.801514, -0.305664, -0.314941, -88.702667, +89.571510, +166.475647 
1488856234.189318, 1488856234.189318, -1.801514, -0.305664, -0.314941, -76.282013, +74.923073, +160.341614 
1488856234.193273, 1488856234.193273, -1.801514, -0.305664, -0.314941, -76.282013, +74.923073, +160.341614 
1488856234.197321, 1488856234.197321, -1.801514, -0.305664, -0.314941, -76.282013, +74.923073, +160.341614 
1488856234.201263, 1488856234.201263, -1.513306, -0.470093, -0.405762, -66.134918, +66.179787, +148.271912 
1488856234.205220, 1488856234.205220, -1.513306, -0.470093, -0.405762, -66.134918, +66.179787, +148.271912 
1488856234.209162, 1488856234.209162, -1.513306, -0.470093, -0.405762, -66.134918, +66.179787, +129.701965 
1488856234.214271, 1488856234.214271, -1.513306, -0.470093, -0.405762, -56.186188, +64.730202, +129.701965 
1488856234.218023, 1488856234.218023, -1.513306, -0.470093, -0.405762, -56.186188, +64.730202, +129.701965 
1488856234.221767, 1488856234.221767, -1.494629, -0.911621, -0.225708, -36.410797, +64.730202, +109.362007 
1488856234.225599, 1488856234.225599, -1.494629, -0.911621, -0.225708, -36.410797, +64.730202, +109.362007 
1488856234.229340, 1488856234.229340, -1.494629, -0.911621, -0.225708, -36.410797, +64.730202, +109.362007 
1488856234.233251, 1488856234.233251, -1.494629, -0.911621, -0.225708, -8.594023, +57.390724, +89.205147 
1488856234.236992, 1488856234.236992, -1.494629, -0.911621, -0.225708, -8.594023, +57.390724, +89.205147 
1488856234.240734, 1488856234.240734, -1.454590, -0.750610, -0.041016, -8.594023, +57.390724, +89.205147 
1488856234.244481, 1488856234.244481, -1.454590, -0.750610, -0.041016, +16.537203, +43.444191, +67.186714 
1488856234.248225, 1488856234.248225, -1.454590, -0.750610, -0.041016, +16.537203, +43.444191, +67.186714 
1488856234.251971, 1488856234.251971, -1.454590, -0.750610, -0.041016, +16.537203, +43.444191, +67.186714 
1488856234.255767, 1488856234.255767, -1.454590, -0.750610, -0.041016, +27.599825, +26.583227, +39.949776 
1488856234.259515, 1488856234.259515, -1.454590, -0.520386, +0.204346, +27.599825, +26.583227, +39.949776 
1488856234.263423, 1488856234.263423, -1.458862, -0.520386, +0.204346, +27.599825, +26.583227, +39.949776 
1488856234.267184, 1488856234.267184, -1.458862, -0.520386, +0.204346, +18.063082, +8.272680, +8.867622 
1488856234.270928, 1488856234.270928, -1.458862, -0.520386, +0.204346, +18.063082, +8.272680, +8.867622 
1488856234.274852, 1488856234.274852, -1.458862, -0.520386, +0.204346, +18.063082, +8.272680, -23.267387 
1488856234.278800, 1488856234.278800, -1.458862, -0.520386, +0.242798, -1.269804, -6.970850, -23.267387 
1488856234.282731, 1488856234.282731, -1.431763, -0.605469, +0.242798, -1.269804, -6.970850, -23.267387 
1488856234.286704, 1488856234.286704, -1.431763, -0.605469, +0.242798, -16.147123, -20.642725, -55.463432 
1488856234.290649, 1488856234.290649, -1.431763, -0.605469, +0.242798, -16.147123, -20.642725, -55.463432 
1488856234.294676, 1488856234.294676, -1.431763, -0.605469, +0.242798, -16.147123, -20.642725, -55.463432 
1488856234.298430, 1488856234.298430, -1.431763, -0.605469, +0.211548, -25.653349, -33.048119, -87.506889 
1488856234.302179, 1488856234.302179, -1.484741, -0.547852, +0.215332, -25.653349, -33.048119, -87.506889 
1488856234.306104, 1488856234.306104, -1.484741, -0.547852, +0.215332, -25.653349, -33.048119, -87.506889 
1488856234.310474, 1488856234.310474, -1.484741, -0.547852, +0.215332, -37.204254, -44.003929, -116.284966 
1488856234.314289, 1488856234.314289, -1.484741, -0.547852, +0.215332, -37.204254, -44.003929, -116.284966 
1488856234.318034, 1488856234.318034, -1.484741, -0.547852, +0.215332, -37.204254, -44.003929, -116.284966 
1488856234.321775, 1488856234.321775, -1.213745, +0.487305, -0.441406, -52.173126, -49.695457, -137.647278 
1488856234.325559, 1488856234.325559, -1.213745, +0.487305, -0.441406, -52.173126, -49.695457, -137.647278 
1488856234.329294, 1488856234.329294, -1.213745, +0.487305, -0.441406, -52.173126, -49.695457, -132.169373 
1488856234.333027, 1488856234.333027, -1.213745, +0.487305, -0.441406, -87.329376, -41.181053, -132.169373 
1488856234.336767, 1488856234.336767, -1.213745, +0.487305, -0.441406, -87.329376, -41.181053, -132.169373 
1488856234.340510, 1488856234.340510, -0.195312, +3.317261, -1.205566, -87.329376, -29.111353, -81.113457 
1488856234.344260, 1488856234.344260, -0.195312, +3.317261, -1.205566, -90.060699, -29.111353, -81.113457 
1488856234.348005, 1488856234.348005, -0.195312, +3.317261, -1.205566, -90.060699, -29.111353, -81.113457 
1488856234.351738, 1488856234.351738, -0.195312, +3.317261, -1.205566, +7.275118, -2.408472, -19.666313 
1488856234.355543, 1488856234.355543, -0.195312, +3.317261, -1.205566, +7.275118, -2.408472, -19.666313 
1488856234.359288, 1488856234.359288, -1.868652, -0.612061, +0.556763, +7.275118, -2.408472, -19.666313 
1488856234.363122, 1488856234.363122, -1.868652, -0.612061, +0.556763, +27.584566, +1.192602, -26.471733 
1488856234.367071, 1488856234.367071, -1.868652, -0.612061, +0.556763, +27.584566, +1.192602, -26.471733 
1488856234.371020, 1488856234.371020, -1.868652, -0.612061, +0.556763, +27.584566, +1.192602, -26.471733 
1488856234.374978, 1488856234.374978, -1.868652, -0.612061, +0.556763, -31.924711, -26.593653, -79.038261 
1488856234.379029, 1488856234.379029, -1.750977, +0.067139, -0.208008, -31.924711, -26.593653, -79.038261 
1488856234.382987, 1488856234.382987, -1.750977, +0.067139, -0.208008, -31.924711, -26.593653, -79.038261 
1488856234.386933, 1488856234.386933, -1.750977, +0.067139, -0.208008, -46.390045, -32.895531, -96.768974 
1488856234.390881, 1488856234.390881, -1.750977, +0.067139, -0.208008, -46.390045, -32.895531, -96.768974 
1488856234.394737, 1488856234.394737, -1.750977, +0.067139, -0.208008, -46.390045, -32.895531, -87.278008 
1488856234.398488, 1488856234.398488, -1.750977, +0.458374, -0.609863, -50.418365, -25.037256, -87.278008 
1488856234.402235, 1488856234.402235, -1.216553, +0.458374, -0.609863, -50.418365, -25.037256, -87.278008 
1488856234.406070, 1488856234.406070, -1.216553, +0.458374, -0.609863, -34.793365, -10.480371, -85.645317 
1488856234.409822, 1488856234.409822, -1.216553, +0.458374, -0.609863, -32.855499, -10.480371, -85.645317 
1488856234.413601, 1488856234.413601, -1.216553, +0.458374, -0.609863, -32.855499, -10.480371, -85.645317 
1488856234.417523, 1488856234.417523, -1.216553, +0.458374, -0.641113, -43.597687, -2.622095, -104.596733 
1488856234.421594, 1488856234.421594, -1.303223, -0.084351, -0.641113, -43.597687, -2.622095, -104.596733 
1488856234.425672, 1488856234.425672, -1.303223, -0.084351, -0.641113, -43.597687, -2.622095, -104.596733 
1488856234.429559, 1488856234.429559, -1.303223, -0.084351, -0.641113, -65.768707, -10.449854, -116.346001 
1488856234.433543, 1488856234.433543, -1.303223, -0.084351, -0.641113, -65.768707, -10.449854, -116.346001 
1488856234.437487, 1488856234.437487, -1.303223, -0.084351, -0.667725, -65.768707, -10.449854, -116.346001 
1488856234.441426, 1488856234.441426, -0.972412, -0.163940, -0.667725, -60.245026, -21.878687, -111.020683 
1488856234.445267, 1488856234.445267, -0.972412, -0.163940, -0.667725, -60.245026, -21.878687, -111.020683 
1488856234.449022, 1488856234.449022, -0.972412, -0.163940, -0.667725, -60.245026, -21.878687, -94.434380 
1488856234.452775, 1488856234.452775, -0.972412, -0.163940, -0.667725, -22.723661, -21.588770, -94.434380 
1488856234.456569, 1488856234.456569, -0.972412, -0.163940, -0.667725, -22.723661, -21.588770, -94.434380 
1488856234.460320, 1488856234.460320, -1.018799, -0.613281, -0.600342, -22.723661, -22.290674, -75.727104 
1488856234.464079, 1488856234.464079, -1.018799, -0.613281, -0.600342, +37.289154, -22.290674, -75.727104 
1488856234.467825, 1488856234.467825, -1.018799, -0.613281, -0.600342, +37.289154, -22.290674, -75.727104 
1488856234.471573, 1488856234.471573, -1.018799, -0.613281, -0.600342, +78.732025, -27.127710, -62.390923 
1488856234.475500, 1488856234.475500, -1.018799, -0.613281, -0.600342, +78.732025, -27.127710, -62.390923 
1488856234.479253, 1488856234.479253, -1.302979, -0.055176, -0.232910, +78.732025, -27.127710, -62.390923 
1488856234.483116, 1488856234.483116, -1.302979, -0.055176, -0.232910, +88.467133, -33.154930, -54.975151 
1488856234.487065, 1488856234.487065, -1.302979, -0.055176, -0.232910, +88.467133, -33.154930, -54.975151 
1488856234.491015, 1488856234.491015, -1.302979, -0.055176, -0.232910, +88.467133, -33.154930, -54.975151 
1488856234.495006, 1488856234.495006, -1.302979, -0.055176, -0.232910, +77.770721, -35.169090, -50.916313 
1488856234.498766, 1488856234.498766, -1.103271, +0.446289, -0.272949, +77.770721, -35.169090, -50.916313 
1488856234.502513, 1488856234.502513, -1.103271, +0.446289, -0.272949, +77.770721, -35.169090, -50.916313 
1488856234.506445, 1488856234.506445, -1.103271, +0.446289, -0.272949, +56.362640, -30.988184, -50.473808 
1488856234.510496, 1488856234.510496, -1.103271, +0.446289, -0.272949, +56.362640, -30.988184, -50.473808 
1488856234.514427, 1488856234.514427, -1.103271, +0.446289, -0.272949, +56.362640, -30.988184, -54.883598 
1488856234.518320, 1488856234.518320, -1.183594, +0.296021, -0.271729, +32.238495, -26.242701, -54.883598 
1488856234.522255, 1488856234.522255, -1.183594, +0.296021, -0.271729, +32.238495, -26.242701, -54.883598 
1488856234.526163, 1488856234.526163, -1.147827, +0.008789, -0.248413, -2.292143, -22.687403, -51.709770 
1488856234.551035, 1488856234.551035, -1.147827, +0.008789, -0.248413, -2.734648, -22.183863, -51.709770 
1488856234.555007, 1488856234.555007, -1.147827, +0.008789, -0.248413, -2.734648, -22.183863, -51.709770 
1488856234.558893, 1488856234.558893, -1.022339, -0.220459, -0.495850, +8.358492, -23.602930, -43.775200 
1488856234.562877, 1488856234.562877, -1.022339, -0.220459, -0.495850, +8.358492, -23.602930, -43.775200 
1488856234.566767, 1488856234.566767, -1.022339, -0.220459, -0.495850, +8.358492, -23.602930, -43.775200 
1488856234.570684, 1488856234.570684, -1.022339, -0.220459, -0.495850, +24.731173, -24.350611, -33.216118 
1488856234.574549, 1488856234.574549, -1.022339, -0.220459, -0.495850, +24.731173, -24.350611, -33.216118 
1488856234.578299, 1488856234.578299, -1.020386, -0.097046, -0.435547, +24.731173, -24.350611, -33.216118 
1488856234.582047, 1488856234.582047, -1.020386, -0.097046, -0.435547, +34.298431, -21.848169, -24.030327 
1488856234.585808, 1488856234.585808, -1.020386, -0.097046, -0.435547, +34.298431, -21.848169, -24.030327 
1488856234.589554, 1488856234.589554, -1.020386, -0.097046, -0.435547, +34.298431, -21.848169, -24.030327 
1488856234.593436, 1488856234.593436, -1.020386, -0.097046, -0.435547, +41.622650, -20.749537, -18.186211 
1488856234.597184, 1488856234.597184, -1.082520, +0.012573, -0.237671, +41.622650, -20.749537, -18.186211 
1488856234.600935, 1488856234.600935, -1.082520, +0.012573, -0.237671, +41.622650, -20.749537, -18.186211 
1488856234.604785, 1488856234.604785, -1.082520, +0.012573, -0.237671, +41.302216, -19.605127, -16.675591 
1488856234.608536, 1488856234.608536, -1.082520, +0.012573, -0.237671, +41.302216, -19.605127, -16.675591 
1488856234.612285, 1488856234.612285, -1.082520, +0.012573, -0.237671, +41.302216, -19.605127, -17.118095 
1488856234.616317, 1488856234.616317, -1.082520, +0.012573, -0.310913, +35.290253, -18.018213, -17.118095 
1488856234.620264, 1488856234.620264, -1.052490, +0.287598, -0.310913, +35.290253, -18.018213, -17.118095 
1488856234.624201, 1488856234.624201, -1.052490, +0.287598, -0.310913, +23.800386, -16.934839, -18.918633 
1488856234.628148, 1488856234.628148, -1.052490, +0.287598, -0.310913, +23.800386, -16.934839, -18.918633 
1488856234.632090, 1488856234.632090, -1.052490, +0.287598, -0.310913, +23.800386, -16.934839, -18.918633 
1488856234.636037, 1488856234.636037, -1.052490, +0.287598, -0.288208, +14.141573, -17.423120, -21.665215 
1488856234.639986, 1488856234.639986, -1.102051, +0.003662, -0.288208, +14.141573, -17.423120, -21.665215 
1488856234.643947, 1488856234.643947, -1.102051, +0.003662, -0.288208, +14.141573, -17.423120, -21.665215 
1488856234.647898, 1488856234.647898, -1.102051, +0.003662, -0.288208, +11.578096, -18.308130, -22.306084 
1488856234.651841, 1488856234.651841, -1.102051, +0.003662, -0.288208, +11.578096, -18.308130, -22.306084 
1488856234.655803, 1488856234.655803, -1.102051, +0.003662, -0.382202, +11.578096, -18.308130, -20.490288 
1488856234.659995, 1488856234.659995, -0.986572, -0.022705, -0.382202, +13.912691, -18.872705, -20.490288 
1488856234.664200, 1488856234.664200, -0.986572, -0.022705, -0.382202, +13.912691, -18.872705, -20.490288 
1488856234.668146, 1488856234.668146, -0.986572, -0.022705, -0.382202, +18.291964, -18.323389, -17.789482 
1488856234.672091, 1488856234.672091, -0.986572, -0.022705, -0.382202, +18.291964, -18.323389, -17.789482 
1488856234.676088, 1488856234.676088, -0.986572, -0.020142, -0.308105, +18.291964, -18.323389, -17.789482 
1488856234.680028, 1488856234.680028, -1.053711, -0.020142, -0.308105, +21.206392, -18.491236, -17.163872 
1488856234.683990, 1488856234.683990, -1.053711, -0.020142, -0.308105, +21.206392, -18.491236, -17.163872 
1488856234.687943, 1488856234.687943, -1.053711, -0.020142, -0.308105, +21.206392, -18.491236, -17.163872 
1488856234.691887, 1488856234.691887, -1.053711, -0.020142, -0.308105, +19.497408, -19.101587, -17.926811 
1488856234.695701, 1488856234.695701, -1.053711, -0.020142, -0.364746, +19.497408, -19.101587, -17.926811 
1488856234.699586, 1488856234.699586, -1.038696, +0.052124, -0.364746, +19.497408, -19.101587, -18.521904 
1488856234.703344, 1488856234.703344, -1.038696, +0.052124, -0.364746, +15.789522, -19.223658, -18.521904 
1488856234.707096, 1488856234.707096, -1.038696, +0.052124, -0.364746, +15.789522, -19.223658, -18.521904 
1488856234.710846, 1488856234.710846, -1.038696, +0.052124, -0.364746, +15.789522, -19.025293, -18.811821 
1488856234.714848, 1488856234.714848, -1.038696, +0.052124, -0.364746, +13.988985, -19.025293, -18.811821 
1488856234.718598, 1488856234.718598, -1.114868, -0.039429, -0.337524, +13.988985, -19.025293, -18.811821 
1488856234.722350, 1488856234.722350, -1.114868, -0.039429, -0.337524, +15.133394, -19.849268, -19.895195 
1488856234.726355, 1488856234.726355, -1.114868, -0.039429, -0.337524, +15.133394, -19.849268, -19.895195 
1488856234.730099, 1488856234.730099, -1.114868, -0.039429, -0.337524, +15.133394, -19.849268, -19.895195 
1488856234.734046, 1488856234.734046, -1.114868, -0.039429, -0.337524, +16.582979, -20.566431, -20.291924 
