Calculating the offsets...
timestamp_before, timestamp_after, accel_x, accel_y, accel_z, gyro_x, gyro_y, gyro_z
1488856400.855470, 1488856400.855470, -1.174805, +0.071899, -0.253784, +10.538083, -20.168644, -44.582253 
1488856400.868672, 1488856400.868672, -1.174805, +0.071899, -0.253784, +12.689572, -20.534855, -31.902199 
1488856400.872422, 1488856400.872422, -1.210571, -0.465332, -0.237305, +12.689572, -20.534855, -31.902199 
1488856400.876454, 1488856400.876454, -1.210571, -0.465332, -0.237305, +12.689572, -20.534855, -16.277199 
1488856400.880613, 1488856400.880613, -1.210571, -0.465332, -0.237305, +30.832272, -23.006779, -14.247781 
1488856400.884573, 1488856400.884573, -1.210571, -0.465332, -0.237305, +30.832272, -23.006779, -14.247781 
1488856400.888518, 1488856400.888518, -1.210571, -0.465332, -0.237305, +57.016354, -26.745182, +1.712913 
1488856400.892462, 1488856400.892462, -1.180054, -0.279663, -0.502197, +57.016354, -26.745182, +1.712913 
1488856400.896415, 1488856400.896415, -1.180054, -0.279663, -0.502197, +57.016354, -26.745182, +1.712913 
1488856400.900359, 1488856400.900359, -1.180054, -0.279663, -0.502197, +71.420654, -26.241642, +12.577170 
1488856400.904264, 1488856400.904264, -1.180054, -0.279663, -0.502197, +71.420654, -26.241642, +12.577170 
1488856400.908128, 1488856400.908128, -1.180054, -0.279663, -0.502197, +71.420654, -26.241642, +12.577170 
1488856400.911881, 1488856400.911881, -1.188232, +0.058594, -0.417969, +70.077881, -26.089054, +13.874167 
1488856400.915644, 1488856400.915644, -1.188232, +0.058594, -0.417969, +70.077881, -26.089054, +13.874167 
1488856400.919391, 1488856400.919391, -1.188232, +0.058594, -0.417969, +70.077881, -26.089054, +13.874167 
1488856400.923151, 1488856400.923151, -1.188232, +0.058594, -0.417969, +61.548214, -24.013859, +11.570090 
1488856400.926906, 1488856400.926906, -1.188232, +0.058594, -0.417969, +61.548214, -24.013859, +11.570090 
1488856400.930653, 1488856400.930653, -1.180054, +0.345459, -0.314941, +61.548214, -24.013859, +11.570090 
1488856400.934618, 1488856400.934618, -1.180054, +0.345459, -0.314941, +53.018551, -23.083073, +9.418601 
1488856400.938571, 1488856400.938571, -1.180054, +0.345459, -0.314941, +53.018551, -23.083073, +9.418601 
1488856400.942514, 1488856400.942514, -1.180054, +0.345459, -0.314941, +53.018551, -26.989323, +8.625144 
1488856400.946505, 1488856400.946505, -1.180054, +0.345459, -0.314941, +48.669796, -26.607853, +8.625144 
1488856400.950448, 1488856400.950448, -1.165405, +0.063110, -0.272461, +48.669796, -26.607853, +8.625144 
1488856400.954338, 1488856400.954338, -1.165405, +0.063110, -0.272461, +50.439816, -33.153873, +4.718894 
1488856400.958087, 1488856400.958087, -1.165405, +0.063110, -0.272461, +50.439816, -33.153873, +4.718894 
1488856400.961832, 1488856400.961832, -1.165405, +0.063110, -0.272461, +50.439816, -33.153873, +4.718894 
1488856400.965741, 1488856400.965741, -1.165405, +0.063110, -0.272461, +54.697018, -40.294987, -1.521951 
1488856400.969688, 1488856400.969688, -0.932861, +0.233398, -0.419556, +54.697018, -40.294987, -1.521951 
1488856400.973828, 1488856400.973828, -0.932861, +0.233398, -0.419556, +54.697018, -40.294987, -1.521951 
1488856400.977722, 1488856400.977722, -0.932861, +0.233398, -0.419556, +53.537350, -43.133121, -8.586770 
1488856400.982203, 1488856400.982203, -0.932861, +0.233398, -0.419556, +53.537350, -43.133121, -8.586770 
1488856400.986166, 1488856400.986166, -0.932861, +0.233398, -0.419556, +53.537350, -45.269352, -17.360573 
1488856400.990110, 1488856400.990110, -0.889771, +0.153198, -0.395630, +48.334103, -45.269352, -17.360573 
1488856400.994073, 1488856400.994073, -0.889771, +0.153198, -0.395630, +48.334103, -45.269352, -17.360573 
1488856400.998023, 1488856400.998023, -0.889771, +0.153198, -0.395630, +38.995724, -48.260075, -29.353981 
1488856401.001966, 1488856401.001966, -0.889771, +0.153198, -0.395630, +38.995724, -48.260075, -29.353981 
1488856401.005781, 1488856401.005781, -0.889771, +0.153198, -0.395630, +38.995724, -48.260075, -29.353981 
1488856401.009535, 1488856401.009535, -0.680908, +0.166504, -0.593384, +30.267696, -53.753239, -41.408424 
1488856401.013479, 1488856401.013479, -0.680908, +0.166504, -0.593384, +30.267696, -53.753239, -41.408424 
1488856401.017229, 1488856401.017229, -0.680908, +0.166504, -0.593384, +30.267696, -53.753239, -41.408424 
1488856401.020985, 1488856401.020985, -0.680908, +0.166504, -0.593384, +27.811031, -53.554874, -51.051979 
1488856401.024780, 1488856401.024780, -0.680908, +0.166504, -0.593384, +27.811031, -53.554874, -51.051979 
1488856401.028528, 1488856401.028528, -0.712158, +0.080444, -0.511475, +27.811031, -53.554874, -51.051979 
1488856401.032284, 1488856401.032284, -0.711792, +0.080444, -0.511475, +24.164181, -53.737980, -62.953835 
1488856401.036302, 1488856401.036302, -0.711792, +0.080444, -0.511475, +24.164181, -53.737980, -62.953835 
1488856401.040254, 1488856401.040254, -0.711792, +0.080444, -0.511475, +24.164181, -53.737980, -73.848610 
1488856401.044209, 1488856401.044209, -0.711792, +0.080444, -0.511475, +14.993649, -54.287296, -73.848610 
1488856401.048158, 1488856401.048158, -0.711792, -0.062866, -0.434448, +14.993649, -54.287296, -73.848610 
1488856401.052103, 1488856401.052103, -0.904419, -0.062866, -0.434448, +9.698850, -56.743961, -80.470924 
1488856401.055943, 1488856401.055943, -0.904419, -0.062866, -0.434448, +9.698850, -56.743961, -80.470924 
1488856401.059699, 1488856401.059699, -0.904419, -0.062866, -0.434448, +9.698850, -56.743961, -80.470924 
1488856401.063509, 1488856401.063509, -0.904419, -0.062866, -0.434448, +13.635617, -59.383732, -83.141212 
1488856401.067463, 1488856401.067463, -0.904419, -0.062866, -0.295166, +13.635617, -59.383732, -83.141212 
1488856401.071413, 1488856401.071413, -1.197632, -0.334106, -0.295166, +13.635617, -59.383732, -83.141212 
1488856401.075375, 1488856401.075375, -1.197632, -0.334106, -0.295166, +26.605587, -64.617493, -84.361916 
1488856401.079318, 1488856401.079318, -1.197632, -0.334106, -0.295166, +26.605587, -64.617493, -84.361916 
1488856401.083284, 1488856401.083284, -1.197632, -0.334106, -0.295166, +26.605587, -64.617493, -84.361916 
1488856401.087238, 1488856401.087238, -1.197632, -0.334106, -0.412720, +35.989742, -66.463806, -84.224586 
1488856401.091310, 1488856401.091310, -1.193726, +0.163208, -0.412720, +35.989742, -66.463806, -84.224586 
1488856401.095195, 1488856401.095195, -1.193726, +0.163208, -0.412720, +35.989742, -64.541199, -85.582619 
1488856401.098946, 1488856401.098946, -1.193726, +0.163208, -0.412720, +34.128170, -64.541199, -85.582619 
1488856401.102699, 1488856401.102699, -1.193726, +0.163208, -0.412720, +34.128170, -64.541199, -85.582619 
1488856401.106450, 1488856401.106450, -1.193726, +0.163208, -0.412720, +25.217037, -65.960266, -91.106300 
1488856401.110202, 1488856401.110202, -1.486816, +0.109375, -0.130249, +25.217037, -65.960266, -91.106300 
1488856401.114005, 1488856401.114005, -1.486816, +0.109375, -0.130249, +25.217037, -65.960266, -91.106300 
1488856401.117939, 1488856401.117939, -1.486816, +0.109375, -0.130249, +22.058468, -72.231628, -97.057228 
1488856401.121884, 1488856401.121884, -1.486816, +0.109375, -0.130249, +22.058468, -72.231628, -97.057228 
1488856401.125692, 1488856401.125692, -1.486816, +0.109375, -0.130249, +22.058468, -72.231628, -97.057228 
1488856401.129441, 1488856401.129441, -1.565918, +0.289062, -0.254395, +23.218136, -76.977112, -101.100807 
1488856401.133354, 1488856401.133354, -1.565918, +0.289062, -0.254395, +23.218136, -76.977112, -101.100807 
1488856401.137113, 1488856401.137113, -1.565918, +0.289062, -0.254395, +23.218136, -76.977112, -101.100807 
1488856401.140857, 1488856401.140857, -1.565918, +0.289062, -0.254395, +22.790890, -81.493713, -105.708961 
1488856401.144825, 1488856401.144825, -1.565918, +0.289062, -0.254395, +22.790890, -81.493713, -105.708961 
1488856401.148777, 1488856401.148777, -1.825073, +0.283447, -0.320679, +22.790890, -81.493713, -109.615211 
1488856401.152726, 1488856401.152726, -1.825073, +0.283447, -0.320679, +24.362545, -85.079529, -109.630470 
1488856401.156529, 1488856401.156529, -1.825073, +0.283447, -0.320679, +24.362545, -85.079529, -109.630470 
1488856401.160394, 1488856401.160394, -1.825073, +0.283447, -0.320679, +24.362545, -88.985779, -112.758522 
1488856401.164214, 1488856401.164214, -1.825073, +0.283447, -0.320679, +31.091671, -89.657166, -112.758522 
1488856401.168157, 1488856401.168157, -2.028687, +0.324829, -0.575195, +31.091671, -89.657166, -112.758522 
1488856401.172101, 1488856401.172101, -2.028687, +0.324829, -0.575195, +42.688351, -95.363953, -114.574318 
1488856401.176092, 1488856401.176092, -2.028687, +0.324829, -0.575195, +42.688351, -95.363953, -114.574318 
1488856401.180008, 1488856401.180008, -2.028687, +0.324829, -0.575195, +42.688351, -95.363953, -114.574318 
1488856401.183929, 1488856401.183929, -2.028687, +0.324829, -0.575195, +63.898067, -100.826599, -115.032082 
1488856401.187820, 1488856401.187820, -2.129761, +0.791382, -0.894653, +63.898067, -100.826599, -115.032082 
1488856401.192230, 1488856401.192230, -2.129761, +0.791382, -0.894653, +63.898067, -100.826599, -115.032082 
1488856401.196259, 1488856401.196259, -2.129761, +0.791382, -0.894653, +87.930664, -107.967712, -113.811378 
1488856401.200192, 1488856401.200192, -2.129761, +0.791382, -0.894653, +87.930664, -107.967712, -113.811378 
1488856401.205420, 1488856401.205420, -2.129761, +0.791382, -0.894653, +109.445557, -116.802551, -108.684425 
1488856401.209172, 1488856401.209172, -2.301880, +1.610229, -1.129761, +109.445557, -116.802551, -108.684425 
1488856401.212921, 1488856401.212921, -2.301880, +1.610229, -1.129761, +109.445557, -116.802551, -108.684425 
1488856401.216748, 1488856401.216748, -2.301880, +1.610229, -1.129761, +126.077637, -126.125671, -103.740578 
1488856401.220490, 1488856401.220490, -2.301880, +1.610229, -1.129761, +126.077637, -126.125671, -103.740578 
1488856401.224268, 1488856401.224268, -2.301880, +1.610229, -1.129761, +126.077637, -126.125671, -103.740578 
1488856401.228010, 1488856401.228010, -2.339600, +1.169800, -1.488037, +126.138672, -126.858093, -106.120949 
1488856401.231756, 1488856401.231756, -2.339600, +1.169800, -1.488037, +126.138672, -126.858093, -106.120949 
1488856401.235546, 1488856401.235546, -2.339600, +1.169800, -1.488037, +126.138672, -126.858093, -106.120949 
1488856401.239293, 1488856401.239293, -2.339600, +1.169800, -1.488037, +119.348511, -120.846130, -111.904030 
1488856401.243070, 1488856401.243070, -2.339600, +1.169800, -1.488037, +119.348511, -120.846130, -111.904030 
1488856401.246815, 1488856401.246815, -2.527100, +0.309082, -1.598755, +119.348511, -120.846130, -111.904030 
1488856401.250556, 1488856401.250556, -2.520020, +0.309082, -1.598755, +111.032471, -117.382385, -123.683815 
1488856401.254395, 1488856401.254395, -2.520020, +0.309082, -1.598755, +111.032471, -117.382385, -123.683815 
1488856401.258137, 1488856401.258137, -2.520020, +0.309082, -1.598755, +111.032471, -117.382385, -133.006943 
1488856401.261885, 1488856401.261885, -2.520020, +0.309082, -1.598755, +72.153076, -127.102234, -133.006943 
1488856401.265749, 1488856401.265749, -2.520020, +0.309082, -1.911255, +72.153076, -127.102234, -133.006943 
1488856401.269490, 1488856401.269490, -1.716553, +0.867798, -1.914185, -2.065677, -130.062439, -131.572617 
1488856401.273283, 1488856401.273283, -1.716553, +0.867798, -1.914185, -1.760501, -130.062439, -131.572617 
1488856401.277019, 1488856401.277019, -1.716553, +0.867798, -1.914185, -1.760501, -130.062439, -131.572617 
1488856401.280756, 1488856401.280756, -1.716553, +0.867798, -1.914185, -40.609379, -116.329529, -120.891457 
1488856401.284586, 1488856401.284586, -1.716553, +0.867798, -1.914185, -40.609379, -116.329529, -120.891457 
1488856401.288528, 1488856401.288528, -0.643188, -0.051514, -0.567505, -40.609379, -116.329529, -120.891457 
1488856401.292466, 1488856401.292466, -0.643188, -0.051514, -0.567505, -41.540165, -105.785706, -109.599953 
1488856401.296253, 1488856401.296253, -0.643188, -0.051514, -0.567505, -41.540165, -105.785706, -109.599953 
1488856401.300013, 1488856401.300013, -0.643188, -0.051514, -0.567505, -41.540165, -105.785706, -109.599953 
1488856401.303833, 1488856401.303833, -0.643188, -0.051514, -0.567505, -52.083988, -53.432804, -83.324318 
1488856401.307893, 1488856401.307893, -1.312012, -1.625610, -0.281982, -52.083988, -53.432804, -83.324318 
1488856401.311841, 1488856401.311841, -1.312012, -1.625610, -0.281982, -52.083988, -53.432804, -83.324318 
1488856401.315805, 1488856401.315805, -1.312012, -1.625610, -0.281982, -28.448124, +0.812191, -14.049417 
1488856401.319936, 1488856401.319936, -1.312012, -1.625610, -0.281982, -28.448124, +0.812191, -14.049417 
1488856401.323970, 1488856401.323970, -1.312012, -1.625610, -0.281982, +14.520627, -25.371891, +43.247337 
1488856401.327925, 1488856401.327925, -0.603394, +0.386719, -0.914307, +15.878659, -25.371891, +43.247337 
1488856401.331868, 1488856401.331868, -0.603394, +0.386719, -0.914307, +15.878659, -25.371891, +43.247337 
1488856401.335811, 1488856401.335811, -0.603394, +0.386719, -0.914307, +25.506954, -46.520573, +60.062523 
1488856401.339759, 1488856401.339759, -0.603394, +0.386719, -0.914307, +25.506954, -46.520573, +60.062523 
1488856401.343692, 1488856401.343692, -0.603394, +0.386719, -0.914307, +25.506954, -46.520573, +60.062523 
1488856401.347439, 1488856401.347439, +0.142700, +0.853027, -0.172363, +52.331905, -39.547306, +93.677635 
1488856401.351177, 1488856401.351177, +0.142700, +0.853027, -0.172363, +52.331905, -39.547306, +93.677635 
1488856401.354932, 1488856401.354932, +0.142700, +0.853027, -0.172363, +52.331905, -39.547306, +93.677635 
1488856401.358680, 1488856401.358680, +0.142700, +0.853027, -0.172363, +48.410397, -17.605167, +125.660057 
1488856401.362435, 1488856401.362435, +0.142700, +0.853027, -0.172363, +48.410397, -17.605167, +125.660057 
1488856401.366190, 1488856401.366190, -0.049438, +1.095947, +0.068115, +48.410397, -17.605167, +125.660057 
1488856401.369939, 1488856401.369939, -0.049438, +1.095947, +0.068115, -12.975711, +13.766903, +146.976578 
1488856401.373838, 1488856401.373838, -0.049438, +1.095947, +0.068115, -12.975711, +13.766903, +146.976578 
1488856401.377597, 1488856401.377597, -0.049438, +1.095947, +0.068115, -12.975711, +13.766903, +162.601578 
1488856401.381351, 1488856401.381351, -0.049438, +1.095947, +0.068115, -84.402100, +43.918270, +162.189590 
1488856401.385293, 1488856401.385293, -0.049438, +0.127197, -0.469971, -84.402100, +43.918270, +162.189590 
1488856401.389247, 1488856401.389247, -0.384399, +0.142578, -0.469971, -115.652100, +71.506165, +172.641861 
1488856401.393240, 1488856401.393240, -0.384399, +0.142578, -0.469971, -115.041748, +71.506165, +172.641861 
1488856401.396984, 1488856401.396984, -0.384399, +0.142578, -0.469971, -115.041748, +71.506165, +172.641861 
1488856401.400735, 1488856401.400735, -0.384399, +0.142578, -0.469971, -125.310913, +92.258118, +181.934464 
1488856401.404667, 1488856401.404667, -0.384399, +0.142578, -0.407471, -125.310913, +92.258118, +181.934464 
1488856401.408620, 1488856401.408620, -0.468628, +0.001953, -0.425293, -125.310913, +92.258118, +181.934464 
1488856401.412649, 1488856401.412649, -0.468628, +0.001953, -0.425293, -118.856445, +107.394836, +195.758926 
1488856401.416651, 1488856401.416651, -0.468628, +0.001953, -0.425293, -118.856445, +107.394836, +195.758926 
1488856401.421089, 1488856401.421089, -0.468628, +0.001953, -0.425293, -118.856445, +107.394836, +211.383926 
1488856401.424970, 1488856401.424970, -0.468628, +0.001953, -0.431885, -108.724609, +121.310852, +211.795914 
1488856401.428722, 1488856401.428722, -0.477905, +0.048584, -0.431885, -108.724609, +121.310852, +211.795914 
1488856401.432467, 1488856401.432467, -0.477905, +0.048584, -0.431885, -108.724609, +121.310852, +224.964249 
1488856401.436224, 1488856401.436224, -0.477905, +0.048584, -0.431885, -104.650513, +131.946228, +224.964249 
1488856401.439969, 1488856401.439969, -0.477905, +0.048584, -0.431885, -104.650513, +131.946228, +224.964249 
1488856401.443727, 1488856401.443727, -0.477905, +0.048584, -0.431885, -108.556763, +139.682434, +237.201797 
1488856401.447482, 1488856401.447482, -0.599731, +0.289062, -0.388062, -109.899536, +139.682434, +237.201797 
1488856401.451334, 1488856401.451334, -0.599731, +0.289062, -0.388062, -109.899536, +139.682434, +237.201797 
1488856401.455099, 1488856401.455099, -0.599731, +0.289062, -0.388062, -113.775269, +147.021912, +249.179947 
1488856401.458844, 1488856401.458844, -0.599731, +0.289062, -0.388062, -113.775269, +147.021912, +249.179947 
1488856401.462589, 1488856401.462589, -0.599731, +0.289062, -0.388062, -113.775269, +147.021912, +249.179947 
1488856401.466518, 1488856401.466518, -0.767090, +0.238159, -0.430664, -116.689697, +155.704163, +259.510162 
1488856401.470270, 1488856401.470270, -0.767090, +0.238159, -0.430664, -116.689697, +155.704163, +259.510162 
1488856401.474225, 1488856401.474225, -0.767090, +0.238159, -0.430664, -116.689697, +155.704163, +259.510162 
1488856401.478183, 1488856401.478183, -0.767090, +0.238159, -0.430664, -119.405762, +163.226746, +267.871979 
1488856401.482134, 1488856401.482134, -0.767090, +0.238159, -0.430664, -119.405762, +163.226746, +267.871979 
1488856401.486123, 1488856401.486123, -1.221191, +0.263916, -0.411133, -119.405762, +163.226746, +267.871979 
1488856401.490076, 1488856401.490076, -1.221191, +0.263916, -0.411133, -126.317993, +168.536804, +276.325348 
1488856401.494010, 1488856401.494010, -1.221191, +0.263916, -0.411133, -126.317993, +168.536804, +276.325348 
1488856401.497769, 1488856401.497769, -1.221191, +0.263916, -0.411133, -126.317993, +168.536804, +285.923126 
1488856401.501517, 1488856401.501517, -1.221191, +0.263916, -0.411133, -137.090698, +170.901917, +285.923126 
1488856401.505479, 1488856401.505479, -1.680542, +0.280273, -0.636841, -137.090698, +170.901917, +285.923126 
1488856401.509405, 1488856401.509405, -1.680542, +0.280273, -0.636841, -141.790405, +167.880676, +297.351959 
1488856401.513332, 1488856401.513332, -1.680542, +0.280273, -0.636841, -141.790405, +167.880676, +297.351959 
1488856401.517266, 1488856401.517266, -1.680542, +0.280273, -0.636841, -141.790405, +167.880676, +297.351959 
1488856401.521188, 1488856401.521188, -1.680542, +0.280273, -0.636841, -136.129395, +165.073059, +309.574249 
1488856401.525232, 1488856401.525232, -2.132080, +0.056519, -0.828369, -136.129395, +165.073059, +309.574249 
1488856401.529341, 1488856401.529341, -2.132080, +0.056519, -0.828369, -136.129395, +165.073059, +309.574249 
1488856401.533698, 1488856401.533698, -2.132080, +0.056519, -0.828369, -134.069458, +166.568420, +317.630890 
1488856401.537660, 1488856401.537660, -2.132080, +0.056519, -0.828369, -134.069458, +166.568420, +317.630890 
1488856401.541609, 1488856401.541609, -2.132080, +0.056519, -0.828369, -134.069458, +166.934631, +319.950226 
1488856401.545454, 1488856401.545454, -2.363159, -0.401367, -1.073242, -131.872192, +166.934631, +319.950226 
1488856401.549204, 1488856401.549204, -2.363159, -0.401367, -1.073242, -131.872192, +166.934631, +319.950226 
1488856401.553001, 1488856401.553001, -2.363159, -0.401367, -1.073242, -127.569214, +171.222351, +313.327911 
1488856401.556924, 1488856401.556924, -2.363159, -0.401367, -1.073242, -127.569214, +171.222351, +313.327911 
1488856401.560854, 1488856401.560854, -2.363159, -0.401367, -1.073242, -127.569214, +171.222351, +313.327911 
1488856401.564723, 1488856401.564723, -2.796387, -1.135742, -0.955444, -117.895142, +175.784729, +296.039703 
1488856401.568495, 1488856401.568495, -2.796387, -1.135742, -0.955444, -117.895142, +175.784729, +296.039703 
1488856401.572403, 1488856401.572403, -2.796387, -1.135742, -0.955444, -117.895142, +175.784729, +296.039703 
1488856401.576192, 1488856401.576192, -2.796387, -1.135742, -0.955444, -81.762329, +171.619080, +283.420685 
1488856401.579940, 1488856401.579940, -2.796387, -1.135742, -0.955444, -81.762329, +171.619080, +283.420685 
1488856401.583800, 1488856401.583800, -2.796387, -1.948242, -0.598877, -81.762329, +171.619080, +283.420685 
1488856401.587554, 1488856401.587554, -2.724487, -1.940674, -0.598877, -16.942997, +147.266052, +275.653961 
1488856401.591304, 1488856401.591304, -2.724487, -1.940674, -0.598877, -16.942997, +147.266052, +275.653961 
1488856401.595244, 1488856401.595244, -2.724487, -1.940674, -0.598877, -16.942997, +147.266052, +240.497696 
1488856401.599283, 1488856401.599283, -2.724487, -1.940674, -0.598877, +49.219112, +120.776794, +243.503677 
1488856401.603251, 1488856401.603251, -2.724487, -1.940674, +0.182373, +49.219112, +120.776794, +243.503677 
1488856401.607205, 1488856401.607205, -2.308960, -2.522705, +0.164185, +64.844116, +109.347961, +181.125748 
1488856401.611129, 1488856401.611129, -2.308960, -2.522705, +0.164185, +64.844116, +109.347961, +181.125748 
1488856401.615100, 1488856401.615100, -2.308960, -2.522705, +0.164185, +64.844116, +109.347961, +181.125748 
1488856401.619029, 1488856401.619029, -2.308960, -2.522705, +0.164185, +65.179810, +74.969910, +108.036156 
1488856401.622995, 1488856401.622995, -2.308960, -2.522705, +1.007935, +65.179810, +74.969910, +108.036156 
1488856401.626924, 1488856401.626924, -2.351685, -2.582031, +1.027710, +65.179810, +74.969910, +108.036156 
1488856401.630853, 1488856401.630853, -2.351685, -2.582031, +1.027710, +78.973755, +7.373470, +26.065941 
1488856401.634793, 1488856401.634793, -2.351685, -2.582031, +1.027710, +78.973755, +7.373470, +26.065941 
1488856401.638712, 1488856401.638712, -2.351685, -2.582031, +1.027710, +78.973755, +7.373470, +26.065941 
1488856401.642633, 1488856401.642633, -2.351685, -2.582031, +1.027710, +80.102905, -41.256290, -52.715187 
1488856401.646582, 1488856401.646582, -2.201294, -2.126953, +0.720337, +80.102905, -41.256290, -52.715187 
1488856401.650572, 1488856401.650572, -2.201294, -2.126953, +0.720337, +68.384155, -68.920471, -118.617897 
1488856401.654791, 1488856401.654791, -2.201294, -2.126953, +0.720337, +68.933472, -68.920471, -118.617897 
1488856401.658743, 1488856401.658743, -2.201294, -2.126953, +0.720337, +68.933472, -68.920471, -118.617897 
1488856401.662696, 1488856401.662696, -2.201294, -2.126953, -0.060913, +56.726437, -86.834290, -170.024765 
1488856401.666652, 1488856401.666652, -2.125488, -0.782837, -0.048828, +56.726437, -86.834290, -170.024765 
1488856401.670605, 1488856401.670605, -2.125488, -0.782837, -0.048828, +56.726437, -86.834290, -170.024765 
1488856401.674567, 1488856401.674567, -2.125488, -0.782837, -0.048828, +22.378902, -90.954163, -202.648056 
1488856401.678523, 1488856401.678523, -2.125488, -0.782837, -0.048828, +22.378902, -90.954163, -202.648056 
1488856401.682477, 1488856401.682477, -2.125488, -0.782837, -0.048828, +22.378902, -90.954163, -210.460556 
1488856401.686253, 1488856401.686253, -1.588867, +3.015747, -1.290283, -27.624149, -88.680603, -210.979355 
1488856401.690013, 1488856401.690013, -1.588867, +3.015747, -1.290283, -27.624149, -88.680603, -210.979355 
1488856401.693777, 1488856401.693777, -1.588867, +3.015747, -1.290283, -27.624149, -88.680603, -181.880844 
1488856401.697532, 1488856401.697532, -1.588867, +3.015747, -1.290283, -104.452148, -77.373840, -181.880844 
1488856401.701277, 1488856401.701277, -1.588867, +3.015747, -1.290283, -104.452148, -77.373840, -181.880844 
1488856401.705252, 1488856401.705252, -1.970093, +2.411377, +0.402100, -52.953739, -38.311344, -112.728004 
1488856401.709016, 1488856401.709016, -1.970093, +2.411377, +0.402100, -52.953739, -38.311344, -112.728004 
1488856401.712765, 1488856401.712765, -1.970093, +2.411377, +0.402100, -52.953739, -38.311344, -112.728004 
1488856401.716843, 1488856401.716843, -1.970093, +2.411377, +0.402100, -102.056519, -9.411198, -159.740341 
1488856401.720788, 1488856401.720788, -1.970093, +2.411377, +0.402100, -102.056519, -9.411198, -159.740341 
1488856401.724746, 1488856401.724746, -2.721069, -2.938599, +0.019897, -102.056519, -9.411198, -159.740341 
1488856401.728702, 1488856401.728702, -2.721069, -2.938599, +0.019897, -191.350952, -35.091740, -231.426132 
1488856401.732451, 1488856401.732451, -2.721069, -2.938599, +0.019897, -191.350952, -35.091740, -231.426132 
1488856401.736300, 1488856401.736300, -2.721069, -2.938599, +0.019897, -191.350952, -35.091740, -231.426132 
1488856401.740534, 1488856401.740534, -2.721069, -2.938599, +0.019897, -149.480835, -19.375187, -220.699203 
1488856401.744406, 1488856401.744406, -1.171265, -2.018433, -1.811401, -149.480835, -19.375187, -220.699203 
1488856401.748252, 1488856401.748252, -1.171265, -2.018433, -1.811401, -149.480835, -19.375187, -199.993027 
1488856401.751996, 1488856401.751996, -1.171265, -2.018433, -1.811401, -54.098148, -4.925114, -199.993027 
1488856401.755775, 1488856401.755775, -1.171265, -2.018433, -1.811401, -54.098148, -4.925114, -199.993027 
1488856401.759508, 1488856401.759508, -1.171265, -2.018433, -1.811401, +94.339355, -17.956120, -179.012192 
1488856401.763279, 1488856401.763279, -1.937256, -1.526367, +0.175415, +91.318115, -17.956120, -179.012192 
1488856401.767028, 1488856401.767028, -1.937256, -1.526367, +0.175415, +91.318115, -17.956120, -179.012192 
1488856401.770780, 1488856401.770780, -1.937256, -1.526367, +0.175415, +194.330200, -64.449646, -131.145370 
1488856401.774525, 1488856401.774525, -1.937256, -1.526367, +0.175415, +194.330200, -64.449646, -131.145370 
1488856401.778268, 1488856401.778268, -1.937256, -1.526367, +0.175415, +194.330200, -64.449646, -131.145370 
1488856401.782014, 1488856401.782014, -1.937256, -1.526367, -0.387085, +240.076050, -71.712830, -81.035500 
1488856401.785921, 1488856401.785921, -0.423584, -0.285522, -0.388916, +240.076050, -71.712830, -81.035500 
1488856401.789677, 1488856401.789677, -0.423584, -0.285522, -0.388916, +240.076050, -71.712830, -81.035500 
1488856401.793599, 1488856401.793599, -0.423584, -0.285522, -0.388916, +241.464600, -44.765812, -41.850929 
1488856401.797545, 1488856401.797545, -0.423584, -0.285522, -0.388916, +241.464600, -44.765812, -41.850929 
1488856401.801486, 1488856401.801486, -0.423584, -0.285522, -0.388916, +241.464600, -44.765812, -41.850929 
1488856401.805440, 1488856401.805440, -1.668335, +0.803833, +0.198364, +177.087769, -37.746769, -37.868385 
1488856401.809380, 1488856401.809380, -1.668335, +0.803833, +0.198364, +177.087769, -37.746769, -37.868385 
1488856401.813338, 1488856401.813338, -1.668335, +0.803833, +0.198364, +177.087769, -37.746769, -67.821388 
1488856401.817279, 1488856401.817279, -1.668335, +0.803833, +0.198364, +81.232056, -45.711857, -67.821388 
1488856401.821216, 1488856401.821216, -1.668335, +0.803833, +0.198364, +81.232056, -45.711857, -67.821388 
1488856401.825175, 1488856401.825175, -1.510986, +0.268311, -0.328369, -7.680911, -33.260685, -84.224586 
1488856401.829116, 1488856401.829116, -1.510986, +0.268311, -0.328369, -7.680911, -33.260685, -84.224586 
1488856401.833058, 1488856401.833058, -1.510986, +0.268311, -0.328369, -7.680911, -33.260685, -84.224586 
1488856401.836809, 1488856401.836809, -1.510986, +0.268311, -0.328369, -46.636600, -22.259098, -90.465431 
1488856401.840562, 1488856401.840562, -1.510986, +0.268311, -0.328369, -46.636600, -22.259098, -90.465431 
1488856401.844451, 1488856401.844451, -1.113403, -0.282959, -0.142822, -46.636600, -22.259098, -90.465431 
1488856401.848402, 1488856401.848402, -1.113403, -0.282959, -0.142822, -42.715092, -18.520695, -77.052956 
1488856401.852386, 1488856401.852386, -1.113403, -0.282959, -0.142822, -42.715092, -18.520695, -77.052956 
1488856401.856480, 1488856401.856480, -1.113403, -0.282959, -0.142822, -42.715092, -18.520695, -77.052956 
1488856401.860424, 1488856401.860424, -1.113403, -0.282959, -0.142822, -5.254764, -22.854191, -43.712502 
1488856401.864375, 1488856401.864375, -0.961670, -1.181274, -0.734619, -5.254764, -22.854191, -43.712502 
1488856401.868319, 1488856401.868319, -0.961670, -1.181274, -0.734619, -5.254764, -20.412785, -10.097390 
1488856401.872253, 1488856401.872253, -0.961670, -1.181274, -0.734619, +56.894283, -20.412785, -10.097390 
1488856401.876204, 1488856401.876204, -0.961670, -1.181274, -0.734619, +56.894283, -20.412785, -10.097390 
1488856401.880149, 1488856401.880149, -0.961670, -1.181274, -0.734619, +93.484863, -14.309269, +8.991355 
1488856401.884055, 1488856401.884055, -1.040894, -0.047974, -0.545898, +93.484863, -14.309269, +8.991355 
1488856401.887806, 1488856401.887806, -1.040894, -0.047974, -0.545898, +93.484863, -14.309269, +8.991355 
1488856401.891545, 1488856401.891545, -1.040894, -0.047974, -0.545898, +95.682129, -10.876041, +16.758080 
1488856401.895419, 1488856401.895419, -1.040894, -0.047974, -0.545898, +95.682129, -10.876041, +16.758080 
1488856401.899170, 1488856401.899170, -1.040894, -0.047974, -0.545898, +95.682129, -10.876041, +16.758080 
1488856401.902915, 1488856401.902915, -1.268311, +0.234985, -0.198364, +80.224976, -8.571964, +13.370627 
1488856401.906836, 1488856401.906836, -1.268311, +0.234985, -0.198364, +80.224976, -8.571964, +13.370627 
1488856401.910581, 1488856401.910581, -1.268311, +0.234985, -0.198364, +80.224976, -8.571964, +13.370627 
1488856401.914477, 1488856401.914477, -1.268311, +0.234985, -0.198364, +54.071407, -8.129459, +5.313987 
1488856401.918413, 1488856401.918413, -1.268311, +0.234985, -0.198364, +54.071407, -8.129459, +5.313987 
1488856401.922348, 1488856401.922348, -1.220703, +0.230103, -0.255737, +54.071407, -8.129459, +2.201194 
1488856401.926298, 1488856401.926298, -1.220703, +0.230103, -0.255737, +35.150509, -12.005192, +2.201194 
1488856401.930233, 1488856401.930233, -1.220703, +0.230103, -0.255737, +35.150509, -12.005192, +2.201194 
1488856401.934141, 1488856401.934141, -1.220703, +0.230103, -0.255737, +34.646969, -15.285831, +4.581565 
1488856401.937887, 1488856401.937887, -1.220703, +0.230103, -0.255737, +34.646969, -15.285831, +4.581565 
1488856401.941629, 1488856401.941629, -1.189453, -0.178223, -0.332275, +34.646969, -15.285831, +4.581565 
1488856401.945533, 1488856401.945533, -1.199219, -0.178223, -0.332275, +46.899776, -19.466740, +3.421897 
1488856401.949476, 1488856401.949476, -1.199219, -0.178223, -0.332275, +46.899776, -19.466740, +3.421897 
1488856401.953414, 1488856401.953414, -1.199219, -0.178223, -0.332275, +46.899776, -19.466740, +3.421897 
1488856401.957352, 1488856401.957352, -1.199219, -0.178223, -0.332275, +55.673580, -27.157169, -1.323586 
1488856401.961294, 1488856401.961294, -1.199219, +0.173462, -0.494873, +55.673580, -27.157169, -1.323586 
1488856401.965281, 1488856401.965281, -0.989380, +0.173462, -0.494873, +55.673580, -27.157169, -1.323586 
1488856401.969411, 1488856401.969411, -0.989380, +0.173462, -0.494873, +54.773312, -32.818180, -6.389504 
1488856401.973757, 1488856401.973757, -0.989380, +0.173462, -0.494873, +54.773312, -32.818180, -6.389504 
1488856401.977713, 1488856401.977713, -0.989380, +0.173462, -0.494873, +53.461056, -35.305363, -10.921365 
1488856401.981666, 1488856401.981666, -0.918945, +0.008667, -0.402222, +53.461056, -35.305363, -10.921365 
1488856401.985487, 1488856401.985487, -0.918945, +0.008667, -0.402222, +53.461056, -35.305363, -10.921365 
1488856401.989238, 1488856401.989238, -0.918945, +0.008667, -0.402222, +48.089962, -38.418156, -20.580177 
1488856401.993023, 1488856401.993023, -0.918945, +0.008667, -0.402222, +48.089962, -38.418156, -20.580177 
1488856401.996975, 1488856401.996975, -0.918945, +0.008667, -0.402222, +48.089962, -38.418156, -20.580177 
1488856402.000918, 1488856402.000918, -0.918945, +0.223877, -0.552734, +42.428951, -45.803410, -31.947975 
1488856402.004822, 1488856402.004822, -0.747925, +0.223877, -0.552734, +42.428951, -45.803410, -31.947975 
1488856402.008602, 1488856402.008602, -0.747925, +0.223877, -0.552734, +42.428951, -45.803410, -31.947975 
1488856402.012357, 1488856402.012357, -0.747925, +0.223877, -0.552734, +38.125973, -50.457340, -38.738136 
1488856402.016186, 1488856402.016186, -0.747925, +0.223877, -0.552734, +38.125973, -50.457340, -38.738136 
1488856402.019937, 1488856402.019937, -0.747925, +0.223877, -0.552734, +38.125973, -50.457340, -38.738136 
1488856402.023801, 1488856402.023801, -0.832397, -0.093506, -0.454590, +37.271481, -48.748356, -45.863991 
1488856402.027556, 1488856402.027556, -0.832397, -0.093506, -0.454590, +37.271481, -48.748356, -45.863991 
1488856402.031316, 1488856402.031316, -0.832397, -0.093506, -0.454590, +37.271481, -48.748356, -56.102638 
1488856402.035931, 1488856402.035931, -0.832397, -0.093506, -0.454590, +32.602291, -49.679142, -56.102638 
1488856402.039884, 1488856402.039884, -0.832397, -0.093506, -0.454590, +32.602291, -49.679142, -56.102638 
1488856402.043993, 1488856402.043993, -0.977539, -0.082642, -0.468628, +27.734737, -51.845890, -62.450294 
1488856402.047950, 1488856402.047950, -0.977539, -0.082642, -0.468628, +27.734737, -51.845890, -62.450294 
1488856402.051894, 1488856402.051894, -0.977539, -0.082642, -0.468628, +27.734737, -51.845890, -62.450294 
1488856402.055884, 1488856402.055884, -0.977539, -0.082642, -0.468628, +30.817013, -53.371769, -65.730934 
1488856402.059828, 1488856402.059828, -0.977539, -0.082642, -0.406128, +30.817013, -53.371769, -65.730934 
1488856402.063789, 1488856402.063789, -1.131226, -0.335938, -0.386230, +30.817013, -53.371769, -66.783791 
1488856402.067736, 1488856402.067736, -1.131226, -0.335938, -0.386230, +48.410397, -55.981022, -66.783791 
1488856402.071677, 1488856402.071677, -1.131226, -0.335938, -0.386230, +48.410397, -55.981022, -66.783791 
1488856402.075633, 1488856402.075633, -1.131226, -0.335938, -0.386230, +64.249023, -61.306339, -68.431740 
1488856402.079579, 1488856402.079579, -1.131226, -0.335938, -0.354980, +64.249023, -61.306339, -68.431740 
1488856402.083543, 1488856402.083543, -1.099731, +0.174072, -0.364380, +64.249023, -61.306339, -68.431740 
1488856402.087484, 1488856402.087484, -1.099731, +0.174072, -0.364380, +63.913326, -65.578796, -74.504738 
1488856402.091616, 1488856402.091616, -1.099731, +0.174072, -0.364380, +63.913326, -65.578796, -74.504738 
1488856402.095714, 1488856402.095714, -1.099731, +0.174072, -0.364380, +63.913326, -65.578796, -74.504738 
1488856402.099661, 1488856402.099661, -1.099731, +0.174072, -0.217651, +52.789669, -70.034363, -85.445290 
1488856402.103609, 1488856402.103609, -1.403687, +0.188599, -0.217651, +52.789669, -70.034363, -85.445290 
1488856402.107557, 1488856402.107557, -1.403687, +0.188599, -0.217651, +52.789669, -73.940613, -95.348244 
1488856402.111499, 1488856402.111499, -1.403687, +0.188599, -0.217651, +43.176632, -75.390198, -95.348244 
1488856402.115491, 1488856402.115491, -1.403687, +0.188599, -0.217651, +43.176632, -75.390198, -95.348244 
1488856402.119432, 1488856402.119432, -1.403687, +0.188599, -0.342651, +42.306881, -80.608704, -100.841408 
1488856402.123378, 1488856402.123378, -1.675781, +0.140015, -0.318970, +42.306881, -80.608704, -100.841408 
1488856402.127125, 1488856402.127125, -1.675781, +0.140015, -0.318970, +42.306881, -80.608704, -100.841408 
1488856402.130874, 1488856402.130874, -1.675781, +0.140015, -0.318970, +46.121578, -86.391785, -105.541115 
1488856402.134658, 1488856402.134658, -1.675781, +0.140015, -0.318970, +46.121578, -86.391785, -105.541115 
1488856402.138410, 1488856402.138410, -1.675781, +0.140015, -0.318970, +46.121578, -86.391785, -105.541115 
1488856402.142162, 1488856402.142162, -1.829834, +0.383911, -0.583130, +54.864864, -91.564514, -109.462624 
1488856402.146644, 1488856402.146644, -1.829834, +0.383911, -0.583130, +54.864864, -91.564514, -109.462624 
1488856402.150397, 1488856402.150397, -1.829834, +0.383911, -0.583130, +54.864864, -91.564514, -109.462624 
1488856402.154144, 1488856402.154144, -1.829834, +0.383911, -0.583130, +58.603268, -95.836975, -113.048439 
1488856402.157887, 1488856402.157887, -1.829834, +0.383911, -0.583130, +58.603268, -95.836975, -113.048439 
1488856402.161635, 1488856402.161635, -1.896851, +0.386108, -0.687134, +58.603268, -95.836975, -116.954689 
1488856402.165415, 1488856402.165415, -1.896851, +0.386108, -0.687134, +63.806515, -98.934509, -115.733986 
1488856402.169169, 1488856402.169169, -1.896851, +0.386108, -0.687134, +63.806515, -98.934509, -115.733986 
1488856402.172912, 1488856402.172912, -1.896851, +0.386108, -0.687134, +63.806515, -98.934509, -117.183571 
1488856402.176703, 1488856402.176703, -1.896851, +0.386108, -0.687134, +73.739990, -104.854919, -117.183571 
1488856402.180445, 1488856402.180445, -1.929565, +0.705078, -1.084961, +73.739990, -104.854919, -117.183571 
1488856402.184288, 1488856402.184288, -1.929565, +0.705078, -1.084961, +97.177490, -110.226013, -115.032082 
1488856402.188034, 1488856402.188034, -1.929565, +0.705078, -1.084961, +96.567139, -110.226013, -115.032082 
1488856402.191893, 1488856402.191893, -1.929565, +0.705078, -1.084961, +96.567139, -110.226013, -115.032082 
1488856402.195733, 1488856402.195733, -1.929565, +0.705078, -1.084961, +125.421509, -115.902283, -105.159645 
1488856402.199475, 1488856402.199475, -1.929565, +1.013184, -0.977905, +125.421509, -115.902283, -105.159645 
1488856402.203382, 1488856402.203382, -2.375854, +1.013184, -0.977905, +125.421509, -115.902283, -105.159645 
1488856402.207124, 1488856402.207124, -2.375854, +1.013184, -0.977905, +136.133179, -121.136047, -103.313332 
1488856402.210872, 1488856402.210872, -2.375854, +1.013184, -0.977905, +136.133179, -121.136047, -103.313332 
1488856402.214648, 1488856402.214648, -2.375854, +1.013184, -0.977905, +136.133179, -121.136047, -103.313332 
1488856402.218397, 1488856402.218397, -2.375854, +1.013184, -0.977905, +129.587158, -125.027039, -114.574318 
1488856402.222145, 1488856402.222145, -2.383057, +1.209106, -1.667358, +129.587158, -125.027039, -114.574318 
1488856402.225955, 1488856402.225955, -2.383057, +1.209106, -1.667358, +129.587158, -125.027039, -114.574318 
1488856402.229708, 1488856402.229708, -2.383057, +1.209106, -1.667358, +130.090698, -124.172546, -116.893654 
1488856402.233519, 1488856402.233519, -2.383057, +1.209106, -1.667358, +130.090698, -124.172546, -116.893654 
1488856402.237463, 1488856402.237463, -2.383057, +1.209106, -1.667358, +130.090698, -124.172546, -116.893654 
1488856402.241408, 1488856402.241408, -2.429688, +0.283569, -1.187500, +125.604614, -123.623230, -118.053322 
1488856402.245373, 1488856402.245373, -2.429688, +0.283569, -1.187500, +125.604614, -123.623230, -118.053322 
1488856402.249381, 1488856402.249381, -2.429688, +0.283569, -1.187500, +125.604614, -131.603577, -126.125221 
1488856402.253468, 1488856402.253468, -2.429688, +0.283569, -1.187500, +88.373169, -131.603577, -126.125221 
1488856402.257350, 1488856402.257350, -2.429688, +0.283569, -1.187500, +88.373169, -131.603577, -126.125221 
1488856402.261412, 1488856402.261412, -1.503662, +0.527588, -1.567017, +33.822994, -128.048279, -128.078354 
1488856402.266034, 1488856402.266034, -1.503662, +0.527588, -1.567017, +33.822994, -128.048279, -128.078354 
1488856402.269778, 1488856402.269778, -1.503662, +0.527588, -1.567017, +33.822994, -128.048279, -128.078354 
1488856402.273618, 1488856402.273618, -1.503662, +0.527588, -1.567017, -3.850955, -115.215637, -122.188454 
1488856402.277353, 1488856402.277353, -1.503662, +0.527588, -1.567017, -3.850955, -115.215637, -122.188454 
1488856402.281090, 1488856402.281090, -0.957153, -0.125000, -0.458740, -3.850955, -115.215637, -122.188454 
1488856402.284850, 1488856402.284850, -0.957153, -0.125000, -0.458740, -33.071537, -102.230408, -113.445168 
1488856402.288589, 1488856402.288589, -0.957153, -0.125000, -0.458740, -33.071537, -102.230408, -113.445168 
1488856402.292339, 1488856402.292339, -0.957153, -0.125000, -0.458740, -33.071537, -102.230408, -93.913918 
1488856402.296127, 1488856402.296127, -0.957153, -0.125000, -0.458740, -52.389164, -57.461124, -95.195656 
1488856402.299869, 1488856402.299869, -1.556274, -0.767090, -0.038208, -52.389164, -57.461124, -95.195656 
1488856402.303698, 1488856402.303698, -1.556274, -0.767090, -0.038208, -52.389164, -34.023624, -36.708717 
1488856402.307441, 1488856402.307441, -1.556274, -0.767090, -0.038208, -12.731570, -32.009464, -36.708717 
1488856402.311188, 1488856402.311188, -1.556274, -0.767090, -0.038208, -12.731570, -32.009464, -36.708717 
1488856402.315106, 1488856402.315106, -1.556274, -0.767090, -0.038208, +17.831783, -41.164738, +13.050193 
1488856402.318856, 1488856402.318856, -0.431274, +0.222656, -0.656494, +17.831783, -41.164738, +13.050193 
1488856402.322595, 1488856402.322595, -0.413208, +0.222656, -0.656494, +17.831783, -41.164738, +13.050193 
1488856402.326468, 1488856402.326468, -0.413208, +0.222656, -0.656494, +29.947262, -37.334782, +41.248436 
1488856402.330213, 1488856402.330213, -0.413208, +0.222656, -0.656494, +29.947262, -37.334782, +41.248436 
1488856402.333963, 1488856402.333963, -0.413208, +0.222656, -0.656494, +29.947262, -37.334782, +41.248436 
1488856402.337823, 1488856402.337823, -0.413208, +0.222656, -0.218994, +35.913448, -20.229679, +65.555687 
1488856402.342227, 1488856402.342227, +0.144409, +0.597290, -0.223389, +35.913448, -20.229679, +65.555687 
1488856402.346023, 1488856402.346023, +0.144409, +0.597290, -0.223389, +35.913448, -20.229679, +65.555687 
1488856402.349771, 1488856402.349771, +0.144409, +0.597290, -0.223389, +25.415401, +2.933163, +88.565941 
1488856402.353523, 1488856402.353523, +0.144409, +0.597290, -0.223389, +25.415401, +2.933163, +88.565941 
1488856402.357267, 1488856402.357267, +0.144409, +0.597290, -0.223389, +25.415401, +2.933163, +88.565941 
1488856402.361009, 1488856402.361009, +0.029663, +0.539673, -0.122437, -3.515262, +29.422421, +113.773460 
1488856402.364848, 1488856402.364848, +0.029663, +0.539673, -0.122437, -3.515262, +29.422421, +113.773460 
1488856402.368589, 1488856402.368589, +0.029663, +0.539673, -0.122437, -3.515262, +29.422421, +137.210953 
1488856402.372338, 1488856402.372338, +0.029663, +0.539673, -0.122437, -36.001225, +58.200497, +136.692154 
1488856402.376164, 1488856402.376164, +0.029663, +0.539673, -0.122437, -36.001225, +58.200497, +136.692154 
1488856402.380070, 1488856402.380070, -0.258179, +0.113159, -0.231567, -36.001225, +84.476135, +154.712784 
1488856402.384308, 1488856402.384308, -0.258179, +0.113159, -0.231567, -53.930302, +84.476135, +154.712784 
1488856402.388261, 1488856402.388261, -0.258179, +0.113159, -0.231567, -53.930302, +84.476135, +154.712784 
1488856402.392208, 1488856402.392208, -0.258179, +0.113159, -0.231567, -57.958622, +104.770325, +167.606461 
1488856402.396167, 1488856402.396167, -0.258179, +0.113159, -0.231567, -57.958622, +104.770325, +167.606461 
1488856402.400117, 1488856402.400117, -0.272705, +0.113525, -0.284790, -57.958622, +104.770325, +167.606461 
1488856402.404104, 1488856402.404104, -0.272705, +0.113525, -0.284790, -53.350468, +121.158264, +181.171524 
1488856402.408054, 1488856402.408054, -0.272705, +0.113525, -0.284790, -53.350468, +121.158264, +181.171524 
1488856402.411992, 1488856402.411992, -0.272705, +0.113525, -0.284790, -53.350468, +121.158264, +196.796524 
1488856402.415811, 1488856402.415811, -0.272705, +0.113525, -0.284790, -45.751591, +136.462830, +196.628677 
1488856402.419564, 1488856402.419564, -0.364380, +0.170410, -0.227783, -45.751591, +136.462830, +196.628677 
1488856402.423408, 1488856402.423408, -0.364380, +0.170410, -0.227783, -45.751591, +136.462830, +212.207901 
1488856402.427173, 1488856402.427173, -0.364380, +0.170410, -0.227783, -40.578861, +150.409363, +212.207901 
1488856402.430927, 1488856402.430927, -0.364380, +0.170410, -0.227783, -40.578861, +150.409363, +212.207901 
1488856402.434781, 1488856402.434781, -0.364380, +0.170410, -0.227783, -44.485111, +161.700867, +225.223648 
1488856402.438535, 1488856402.438535, -0.525757, +0.430298, -0.125000, -42.821903, +161.700867, +225.223648 
1488856402.442293, 1488856402.442293, -0.525757, +0.430298, -0.125000, -42.821903, +161.700867, +225.223648 
1488856402.446299, 1488856402.446299, -0.525757, +0.430298, -0.125000, -51.809330, +171.222351, +236.408340 
1488856402.450244, 1488856402.450244, -0.525757, +0.430298, -0.125000, -51.809330, +171.222351, +236.408340 
1488856402.454197, 1488856402.454197, -0.525757, +0.430298, -0.125000, -51.809330, +171.222351, +236.408340 
1488856402.458134, 1488856402.458134, -0.687988, +0.469238, -0.244019, -62.078495, +180.972717, +244.587051 
1488856402.462084, 1488856402.462084, -0.687988, +0.469238, -0.244019, -62.078495, +180.972717, +244.587051 
1488856402.466032, 1488856402.466032, -0.687988, +0.469238, -0.244019, -62.078495, +180.972717, +244.587051 
1488856402.469977, 1488856402.469977, -0.687988, +0.469238, -0.244019, -72.729126, +191.180847, +250.324356 
1488856402.473897, 1488856402.473897, -0.687988, +0.469238, -0.244019, -72.729126, +191.180847, +250.324356 
1488856402.477649, 1488856402.477649, -1.031738, +0.434448, -0.258301, -72.729126, +191.180847, +257.465485 
1488856402.481404, 1488856402.481404, -1.052856, +0.434448, -0.258301, -82.799927, +200.610779, +257.465485 
1488856402.485448, 1488856402.485448, -1.052856, +0.434448, -0.258301, -82.799927, +200.610779, +257.465485 
1488856402.489397, 1488856402.489397, -1.052856, +0.434448, -0.258301, -92.504517, +206.378601, +265.598419 
1488856402.493353, 1488856402.493353, -1.052856, +0.434448, -0.258301, -92.504517, +206.378601, +265.598419 
1488856402.497302, 1488856402.497302, -1.052856, +0.535034, -0.308594, -92.504517, +206.378601, +265.598419 
1488856402.501344, 1488856402.501344, -1.474243, +0.535034, -0.308594, -102.575317, +209.170959, +276.996735 
1488856402.505542, 1488856402.505542, -1.474243, +0.535034, -0.308594, -102.575317, +209.170959, +276.996735 
1488856402.509498, 1488856402.509498, -1.474243, +0.535034, -0.308594, -102.575317, +209.170959, +276.996735 
1488856402.513505, 1488856402.513505, -1.474243, +0.535034, -0.308594, -109.457031, +207.660339, +290.500763 
1488856402.517456, 1488856402.517456, -1.986938, +0.539795, -0.331177, -109.457031, +207.660339, +290.500763 
1488856402.521404, 1488856402.521404, -1.986938, +0.539795, -0.331177, -109.457031, +207.660339, +299.152496 
1488856402.525253, 1488856402.525253, -1.986938, +0.539795, -0.331177, -125.646606, +204.074524, +299.152496 
1488856402.529008, 1488856402.529008, -1.986938, +0.539795, -0.331177, -125.646606, +204.074524, +299.152496 
1488856402.532764, 1488856402.532764, -1.986938, +0.539795, -0.331177, -145.177856, +198.947571, +305.790070 
1488856402.536565, 1488856402.536565, -1.986938, +0.539795, -0.411011, -146.474854, +198.947571, +305.790070 
1488856402.540317, 1488856402.540317, -2.659180, +0.145142, -0.411011, -146.474854, +198.947571, +305.790070 
1488856402.544078, 1488856402.544078, -2.659180, +0.145142, -0.411011, -161.489502, +190.219543, +314.090851 
1488856402.547831, 1488856402.547831, -2.659180, +0.145142, -0.411011, -161.489502, +190.219543, +314.090851 
1488856402.551587, 1488856402.551587, -2.659180, +0.145142, -0.411011, -161.489502, +190.219543, +314.090851 
1488856402.555510, 1488856402.555510, -2.659180, +0.145142, -0.411011, -159.826294, +172.107361, +319.675568 
1488856402.559273, 1488856402.559273, -3.492676, -0.652466, -0.564087, -159.826294, +172.107361, +319.675568 
1488856402.563118, 1488856402.563118, -3.492676, -0.652466, -0.564087, -159.826294, +172.107361, +319.675568 
1488856402.567069, 1488856402.567069, -3.492676, -0.652466, -0.564087, -137.884155, +146.121643, +310.688141 
1488856402.571022, 1488856402.571022, -3.492676, -0.652466, -0.564087, -137.884155, +146.121643, +310.688141 
1488856402.574895, 1488856402.574895, -3.492676, -0.652466, -0.564087, -137.884155, +146.121643, +310.688141 
1488856402.578651, 1488856402.578651, -2.277222, -1.024414, -1.063477, -124.975220, +114.230774, +286.930206 
1488856402.582404, 1488856402.582404, -2.277222, -1.024414, -1.063477, -124.975220, +114.230774, +286.930206 
1488856402.586342, 1488856402.586342, -2.277222, -1.024414, -1.063477, -124.975220, +114.230774, +251.773941 
1488856402.590295, 1488856402.590295, -2.277222, -1.024414, -1.063477, -110.174194, +128.741882, +254.306900 
1488856402.594284, 1488856402.594284, -2.277222, -1.024414, -1.063477, -110.174194, +128.741882, +254.306900 
1488856402.598236, 1488856402.598236, -2.797852, -3.160400, -0.127563, -68.532959, +151.141785, +198.307144 
1488856402.602185, 1488856402.602185, -2.797852, -3.160400, -0.127563, -68.532959, +151.141785, +198.307144 
1488856402.606143, 1488856402.606143, -2.797852, -3.160400, -0.127563, -68.532959, +151.141785, +198.307144 
1488856402.610089, 1488856402.610089, -2.797852, -3.160400, -0.127563, -42.516727, +114.505432, +129.352676 
1488856402.614092, 1488856402.614092, -2.797852, -3.160400, -0.127563, -42.516727, +114.505432, +129.352676 
1488856402.618035, 1488856402.618035, -2.557983, -2.750366, +0.703613, -42.516727, +114.505432, +129.352676 
1488856402.622180, 1488856402.622180, -2.557983, -2.750366, +0.703613, +39.865475, +48.495907, +73.505516 
1488856402.626401, 1488856402.626401, -2.557983, -2.750366, +0.703613, +39.865475, +48.495907, +73.505516 
1488856402.630266, 1488856402.630266, -2.557983, -2.750366, +0.703613, +39.865475, +48.495907, -1.811868 
1488856402.634121, 1488856402.634121, -2.557983, -2.750366, +0.703613, +29.260616, -9.777409, -1.811868 
1488856402.638057, 1488856402.638057, -2.289917, -2.297852, +0.989014, +29.260616, -9.777409, -1.811868 
1488856402.641999, 1488856402.641999, -2.289917, -2.297852, +0.989014, +18.503170, -52.807194, -82.759743 
1488856402.645957, 1488856402.645957, -2.289917, -2.297852, +0.989014, +18.503170, -52.807194, -82.759743 
1488856402.649901, 1488856402.649901, -2.289917, -2.297852, +0.989014, +18.503170, -52.807194, -82.759743 
1488856402.653859, 1488856402.653859, -2.289917, -2.297852, +0.989014, +4.785520, -85.247375, -154.857529 
1488856402.657601, 1488856402.657601, -2.094727, -1.849121, -0.071899, +4.785520, -85.247375, -154.857529 
1488856402.661345, 1488856402.661345, -2.094727, -1.849121, -0.071899, +4.785520, -85.247375, -154.857529 
1488856402.665097, 1488856402.665097, -2.094727, -1.849121, -0.071899, -14.913577, -94.173767, -204.845322 
1488856402.669505, 1488856402.669505, -2.094727, -1.849121, -0.071899, -14.913577, -94.173767, -204.845322 
1488856402.673322, 1488856402.673322, -2.094727, -1.849121, -0.071899, -14.913577, -94.173767, -204.845322 
1488856402.677056, 1488856402.677056, -1.584351, +2.733887, -2.140747, -25.259037, -94.921448, -200.038803 
1488856402.680804, 1488856402.680804, -1.584351, +2.733887, -2.140747, -25.259037, -94.921448, -200.038803 
1488856402.684547, 1488856402.684547, -1.584351, +2.733887, -2.140747, -25.259037, -94.921448, -180.538071 
1488856402.688293, 1488856402.688293, -1.584351, +2.733887, -2.140747, -83.837524, -89.916565, -180.538071 
1488856402.692030, 1488856402.692030, -1.584351, +2.733887, -2.140747, -83.837524, -89.916565, -180.538071 
1488856402.695797, 1488856402.695797, -1.584351, +2.076294, +0.114014, -83.837524, -50.854069, -86.192970 
1488856402.699541, 1488856402.699541, -2.167847, +2.076294, +0.114014, +79.919800, -53.295475, -86.192970 
1488856402.703320, 1488856402.703320, -2.167847, +2.076294, +0.114014, +79.919800, -53.295475, -86.192970 
1488856402.707072, 1488856402.707072, -2.167847, +2.076294, +0.114014, +91.638550, -26.409489, -120.281105 
1488856402.710814, 1488856402.710814, -2.167847, +2.076294, +0.114014, +92.950806, -26.409489, -120.281105 
1488856402.714778, 1488856402.714778, -2.167847, +2.076294, +0.114014, +92.950806, -26.409489, -120.281105 
1488856402.718518, 1488856402.718518, -2.628906, -2.725952, +1.061768, -141.149536, -66.662170, -231.120956 
1488856402.722264, 1488856402.722264, -2.628906, -2.725952, +1.061768, -141.149536, -66.662170, -231.120956 
1488856402.726114, 1488856402.726114, -2.628906, -2.725952, +1.061768, -141.149536, -66.662170, -231.120956 
1488856402.729851, 1488856402.729851, -2.628906, -2.725952, +1.061768, -111.028687, -42.293888, -226.650131 
1488856402.733628, 1488856402.733628, -2.628906, -2.725952, +1.061768, -111.028687, -42.293888, -226.650131 
1488856402.737364, 1488856402.737364, -0.823730, -1.341309, -0.816528, -111.028687, -42.293888, -226.650131 
1488856402.741111, 1488856402.741111, -0.823730, -1.341309, -0.816528, -5.758304, -35.259586, -181.026352 
1488856402.744860, 1488856402.744860, -0.823730, -1.341309, -0.816528, -5.758304, -35.259586, -181.026352 
1488856402.748606, 1488856402.748606, -0.823730, -1.341309, -0.816528, -5.758304, -35.259586, -181.026352 
1488856402.752344, 1488856402.752344, -0.823730, -1.341309, -0.816528, +66.431030, -10.876041, -158.473862 
1488856402.756310, 1488856402.756310, -1.187500, -0.446899, -0.763306, +66.431030, -10.876041, -158.473862 
1488856402.760265, 1488856402.760265, -1.187500, -0.446899, -0.763306, +66.431030, -10.876041, -158.473862 
1488856402.764216, 1488856402.764216, -1.187500, -0.446899, -0.763306, +115.625366, -25.616032, -135.753525 
1488856402.768166, 1488856402.768166, -1.187500, -0.446899, -0.763306, +115.625366, -25.616032, -135.753525 
1488856402.772114, 1488856402.772114, -1.187500, -0.446899, -0.763306, +115.625366, -44.994694, -108.363991 
1488856402.776084, 1488856402.776084, -0.823486, -0.653931, -0.403198, +130.777344, -44.994694, -108.363991 
1488856402.780078, 1488856402.780078, -0.823486, -0.653931, -0.403198, +130.777344, -44.994694, -108.363991 
1488856402.784300, 1488856402.784300, -0.823486, -0.653931, -0.403198, +119.501099, -38.250309, -84.712868 
1488856402.788247, 1488856402.788247, -0.823486, -0.653931, -0.403198, +119.501099, -38.250309, -84.712868 
1488856402.792197, 1488856402.792197, -0.823486, -0.653931, -0.403198, +119.501099, -38.250309, -84.712868 
1488856402.796159, 1488856402.796159, -1.675781, -0.121948, +0.092773, +112.009033, -31.093937, -66.524391 
1488856402.800100, 1488856402.800100, -1.675781, -0.121948, +0.092773, +112.009033, -31.093937, -66.524391 
1488856402.804090, 1488856402.804090, -1.675781, -0.121948, +0.092773, +112.009033, -31.093937, -54.805641 
1488856402.808035, 1488856402.808035, -1.675781, -0.121948, +0.092773, +98.215088, -37.578922, -55.889015 
1488856402.811978, 1488856402.811978, -1.675781, -0.121948, +0.092773, +98.215088, -37.578922, -55.889015 
1488856402.815798, 1488856402.815798, -1.403198, +0.246826, -0.390747, +63.058834, -33.535343, -56.514626 
1488856402.819548, 1488856402.819548, -1.403198, +0.246826, -0.390747, +61.838131, -33.535343, -56.514626 
1488856402.823311, 1488856402.823311, -1.403198, +0.246826, -0.390747, +61.838131, -33.535343, -56.514626 
1488856402.827062, 1488856402.827062, -1.403198, +0.246826, -0.390747, +24.866085, -28.133732, -60.634499 
1488856402.830817, 1488856402.830817, -1.403198, +0.246826, -0.390747, +24.866085, -28.133732, -60.634499 
1488856402.834745, 1488856402.834745, -1.403198, +0.033569, -0.235352, +24.866085, -28.133732, -60.634499 
1488856402.838503, 1488856402.838503, -1.128296, +0.033569, -0.235352, +4.953366, -20.641666, -59.581642 
1488856402.842255, 1488856402.842255, -1.128296, +0.033569, -0.235352, +4.953366, -20.641666, -59.581642 
1488856402.846245, 1488856402.846245, -1.128296, +0.033569, -0.235352, +4.953366, -20.641666, -59.581642 
1488856402.850189, 1488856402.850189, -1.128296, +0.033569, -0.235352, +4.846555, -20.000797, -48.915749 
1488856402.854136, 1488856402.854136, -1.128296, +0.033569, -0.426758, +4.846555, -20.000797, -48.915749 
1488856402.858082, 1488856402.858082, -1.107422, -0.636475, -0.426758, +4.846555, -20.000797, -48.915749 
1488856402.862024, 1488856402.862024, -1.107422, -0.636475, -0.426758, +30.374508, -22.426945, -29.216652 
1488856402.865977, 1488856402.865977, -1.107422, -0.636475, -0.426758, +30.374508, -22.426945, -29.216652 
1488856402.869916, 1488856402.869916, -1.107422, -0.636475, -0.426758, +30.374508, -22.426945, -9.120828 
1488856402.873843, 1488856402.873843, -1.107422, -0.636475, -0.537842, +61.151485, -22.411686, -9.120828 
1488856402.877589, 1488856402.877589, -1.111694, -0.314819, -0.537842, +61.151485, -22.411686, -9.120828 
1488856402.881329, 1488856402.881329, -1.111694, -0.314819, -0.537842, +81.445679, -21.068913, +2.491111 
1488856402.885201, 1488856402.885201, -1.111694, -0.314819, -0.537842, +81.445679, -21.068913, +2.491111 
1488856402.889146, 1488856402.889146, -1.111694, -0.314819, -0.537842, +81.445679, -21.068913, +2.491111 
1488856402.893100, 1488856402.893100, -1.111694, -0.314819, -0.537842, +78.424438, -18.917423, +4.596824 
1488856402.897044, 1488856402.897044, -1.178101, +0.164551, -0.351929, +78.424438, -18.917423, +4.596824 
1488856402.901143, 1488856402.901143, -1.178101, +0.164551, -0.351929, +78.424438, -18.917423, +4.596824 
1488856402.905400, 1488856402.905400, -1.178101, +0.164551, -0.351929, +65.561279, -18.047672, +3.315085 
1488856402.909346, 1488856402.909346, -1.178101, +0.164551, -0.351929, +65.561279, -18.047672, +3.315085 
1488856402.913303, 1488856402.913303, -1.178101, +0.164551, -0.258179, +65.561279, -18.047672, +1.957053 
1488856402.917247, 1488856402.917247, -1.202759, +0.089355, -0.275635, +52.316647, -19.756657, +1.957053 
1488856402.921199, 1488856402.921199, -1.202759, +0.089355, -0.275635, +52.316647, -19.756657, +1.957053 
1488856402.925055, 1488856402.925055, -1.202759, +0.089355, -0.275635, +50.821285, -24.593693, +2.872581 
1488856402.928901, 1488856402.928901, -1.202759, +0.089355, -0.275635, +50.821285, -24.593693, +2.872581 
1488856402.932653, 1488856402.932653, -1.202759, +0.089355, -0.275635, +50.821285, -24.593693, +2.872581 
1488856402.936412, 1488856402.936412, -1.150513, -0.122559, -0.316528, +58.923702, -27.080875, +3.528708 
1488856402.940162, 1488856402.940162, -1.150513, -0.122559, -0.316528, +58.923702, -27.080875, +3.528708 
1488856402.943919, 1488856402.943919, -1.150513, -0.122559, -0.316528, +58.923702, -27.080875, +3.528708 
1488856402.947670, 1488856402.947670, -1.150513, -0.122559, -0.316528, +63.196163, -31.353336, -0.606423 
1488856402.951409, 1488856402.951409, -1.150513, -0.122559, -0.316528, +63.196163, -31.353336, -0.606423 
1488856402.955317, 1488856402.955317, -0.965942, +0.191284, -0.436401, +63.196163, -31.353336, -0.606423 
1488856402.959065, 1488856402.959065, -0.965942, +0.191284, -0.436401, +61.548214, -36.434513, -4.863626 
1488856402.962807, 1488856402.962807, -0.965942, +0.191284, -0.436401, +61.548214, -36.434513, -4.863626 
1488856402.966842, 1488856402.966842, -0.965942, +0.191284, -0.436401, +61.548214, -36.434513, -4.863626 
1488856402.970782, 1488856402.970782, -0.965942, +0.191284, -0.436401, +59.396725, -36.861759, -9.120828 
1488856402.974665, 1488856402.974665, -0.973999, +0.081421, -0.387817, +59.396725, -36.861759, -9.120828 
1488856402.978412, 1488856402.978412, -0.973999, +0.081421, -0.387817, +59.396725, -36.861759, -16.933327 
1488856402.982164, 1488856402.982164, -0.973999, +0.081421, -0.387817, +54.239254, -38.891178, -15.865212 
1488856402.986125, 1488856402.986125, -0.973999, +0.081421, -0.387817, +54.239254, -38.891178, -15.865212 
1488856402.990072, 1488856402.990072, -0.973999, +0.081421, -0.387817, +46.426754, -42.904240, -25.371437 
1488856402.994061, 1488856402.994061, -0.847778, +0.118042, -0.476807, +47.815304, -42.904240, -25.371437 
1488856402.998001, 1488856402.998001, -0.847778, +0.118042, -0.476807, +47.815304, -42.904240, -25.371437 
1488856403.001948, 1488856403.001948, -0.847778, +0.118042, -0.476807, +46.701412, -46.535831, -32.619362 
1488856403.005910, 1488856403.005910, -0.847778, +0.118042, -0.476807, +46.701412, -46.535831, -32.619362 
1488856403.009857, 1488856403.009857, -0.847778, +0.118042, -0.476807, +46.701412, -46.535831, -32.619362 
1488856403.013816, 1488856403.013816, -0.864502, -0.017212, -0.402954, +47.937374, -48.580509, -40.065651 
1488856403.017762, 1488856403.017762, -0.864502, -0.017212, -0.402954, +47.937374, -48.580509, -40.065651 
1488856403.021830, 1488856403.021830, -0.864502, -0.017212, -0.402954, +47.937374, -48.580509, -51.784401 
1488856403.025824, 1488856403.025824, -0.864502, -0.017212, -0.402954, +45.633297, -51.098209, -49.312477 
1488856403.029579, 1488856403.029579, -0.864502, -0.017212, -0.402954, +45.633297, -51.098209, -49.312477 
1488856403.033354, 1488856403.033354, -0.895752, +0.053955, -0.411133, +45.633297, -51.098209, -57.323341 
1488856403.037306, 1488856403.037306, -0.889526, +0.053955, -0.411133, +39.819698, -52.730900, -57.323341 
1488856403.041257, 1488856403.041257, -0.889526, +0.053955, -0.411133, +39.819698, -52.730900, -57.323341 
1488856403.045207, 1488856403.045207, -0.889526, +0.053955, -0.411133, +32.297115, -53.982121, -63.060646 
1488856403.049157, 1488856403.049157, -0.889526, +0.053955, -0.411133, +32.297115, -53.982121, -63.060646 
1488856403.053110, 1488856403.053110, -0.889526, -0.105225, -0.215942, +32.297115, -53.982121, -63.060646 
1488856403.056865, 1488856403.056865, -1.089966, -0.105225, -0.215942, +28.879147, -56.423527, -68.141823 
1488856403.060617, 1488856403.060617, -1.089966, -0.105225, -0.215942, +28.879147, -56.423527, -68.141823 
1488856403.064420, 1488856403.064420, -1.089966, -0.105225, -0.215942, +28.879147, -56.423527, -68.141823 
1488856403.068166, 1488856403.068166, -1.089966, -0.105225, -0.215942, +29.397945, -59.765202, -71.086769 
1488856403.071915, 1488856403.071915, -1.089966, -0.105225, -0.215942, +29.397945, -59.765202, -71.086769 
1488856403.075892, 1488856403.075892, -1.185791, +0.055664, -0.286377, +29.397945, -59.765202, -71.086769 
1488856403.079641, 1488856403.079641, -1.185791, +0.055664, -0.286377, +24.591427, -59.780460, -74.108009 
1488856403.083576, 1488856403.083576, -1.185791, +0.055664, -0.286377, +24.591427, -59.780460, -74.108009 
1488856403.087530, 1488856403.087530, -1.185791, +0.055664, -0.286377, +24.591427, -59.780460, -78.716164 
1488856403.091478, 1488856403.091478, -1.185791, +0.055664, -0.286377, +23.553829, -61.016422, -78.716164 
1488856403.095425, 1488856403.095425, -1.459473, -0.039062, -0.117188, +23.553829, -61.016422, -78.716164 
1488856403.099372, 1488856403.099372, -1.459473, -0.039062, -0.117188, +27.093868, -65.182068, -83.949928 
1488856403.103334, 1488856403.103334, -1.459473, -0.039062, -0.117188, +27.093868, -65.182068, -83.949928 
1488856403.107275, 1488856403.107275, -1.459473, -0.039062, -0.117188, +27.093868, -65.182068, -83.949928 
1488856403.111232, 1488856403.111232, -1.459473, -0.039062, -0.117188, +32.648067, -73.665955, -88.481789 
1488856403.115091, 1488856403.115091, -1.485474, +0.338257, -0.228394, +32.648067, -73.665955, -88.481789 
1488856403.118845, 1488856403.118845, -1.485474, +0.338257, -0.228394, +32.648067, -73.665955, -88.481789 
1488856403.122598, 1488856403.122598, -1.485474, +0.338257, -0.228394, +28.818111, -79.281189, -92.800026 
1488856403.126397, 1488856403.126397, -1.485474, +0.338257, -0.228394, +28.818111, -79.281189, -92.800026 
1488856403.130144, 1488856403.130144, -1.485474, +0.338257, -0.228394, +28.818111, -79.281189, -92.800026 
1488856403.133965, 1488856403.133965, -1.788086, +0.241211, -0.310425, +22.745113, -81.951477, -99.208717 
1488856403.137919, 1488856403.137919, -1.788086, +0.241211, -0.310425, +22.745113, -81.951477, -99.208717 
1488856403.141941, 1488856403.141941, -1.788086, +0.241211, -0.310425, +22.745113, -81.951477, -104.900246 
1488856403.146020, 1488856403.146020, -1.788086, +0.241211, -0.310425, +20.334225, -84.377625, -104.900246 
1488856403.149974, 1488856403.149974, -1.788086, +0.241211, -0.310425, +20.334225, -84.377625, -104.900246 
1488856403.153938, 1488856403.153938, -1.974609, +0.320557, -0.552002, +27.170162, -89.733459, -109.172707 
1488856403.157887, 1488856403.157887, -1.974609, +0.320557, -0.552002, +27.170162, -89.733459, -109.172707 
1488856403.161833, 1488856403.161833, -1.974609, +0.320557, -0.552002, +27.170162, -89.733459, -109.172707 
1488856403.165798, 1488856403.165798, -1.974609, +0.320557, -0.552002, +39.316158, -95.959045, -110.545998 
1488856403.169746, 1488856403.169746, -1.974609, +0.320557, -0.552002, +39.316158, -95.959045, -110.545998 
1488856403.173678, 1488856403.173678, -1.994385, +0.615479, -0.892334, +39.316158, -95.959045, -110.545998 
1488856403.177428, 1488856403.177428, -1.994385, +0.615479, -0.892334, +56.329708, -102.367737, -112.132912 
1488856403.181183, 1488856403.181183, -1.994385, +0.615479, -0.892334, +56.329708, -102.367737, -112.132912 
1488856403.185008, 1488856403.185008, -1.994385, +0.615479, -0.892334, +56.329708, -102.367737, -112.132912 
1488856403.189202, 1488856403.189202, -1.994385, +0.615479, -0.892334, +74.487671, -110.195496, -112.224464 
1488856403.192943, 1488856403.192943, -2.094238, +1.257812, -1.175659, +74.487671, -110.195496, -112.224464 
1488856403.196762, 1488856403.196762, -2.094238, +1.257812, -1.175659, +74.487671, -118.007996, -107.509499 
1488856403.200511, 1488856403.200511, -2.094238, +1.257812, -1.175659, +94.614014, -119.747498, -107.509499 
1488856403.204269, 1488856403.204269, -2.094238, +1.257812, -1.175659, +94.614014, -119.747498, -107.509499 
1488856403.208014, 1488856403.208014, -2.094238, +1.257812, -1.175659, +110.040649, -124.859192, -109.920387 
1488856403.211756, 1488856403.211756, -2.094238, +1.150391, -1.636597, +110.040649, -124.859192, -109.920387 
1488856403.215542, 1488856403.215542, -2.324829, +1.150391, -1.636597, +110.040649, -124.859192, -109.920387 
1488856403.219283, 1488856403.219283, -2.324829, +1.150391, -1.636597, +106.866821, -125.057556, -122.997169 
1488856403.223131, 1488856403.223131, -2.324829, +1.150391, -1.636597, +106.866821, -125.057556, -122.997169 
1488856403.226876, 1488856403.226876, -2.324829, +1.150391, -1.636597, +106.866821, -125.057556, -122.997169 
1488856403.230614, 1488856403.230614, -2.324829, +1.150391, -1.636597, +106.485352, -116.497375, -125.209694 
1488856403.234547, 1488856403.234547, -2.414673, +0.759277, -1.449097, +106.485352, -116.497375, -125.209694 
1488856403.238300, 1488856403.238300, -2.414673, +0.759277, -1.449097, +106.485352, -116.497375, -125.209694 
1488856403.242048, 1488856403.242048, -2.414673, +0.759277, -1.449097, +99.878296, -115.383484, -127.895241 
1488856403.246040, 1488856403.246040, -2.414673, +0.759277, -1.449097, +99.878296, -115.383484, -127.895241 
1488856403.249987, 1488856403.249987, -2.414673, +0.759277, -1.449097, +99.878296, -115.383484, -127.895241 
1488856403.253945, 1488856403.253945, -2.134644, +0.331787, -1.420654, +66.934570, -123.791077, -133.891953 
1488856403.257889, 1488856403.257889, -2.134644, +0.331787, -1.420654, +66.934570, -123.791077, -133.891953 
1488856403.261835, 1488856403.261835, -2.134644, +0.331787, -1.420654, +66.934570, -123.791077, -128.597153 
1488856403.265653, 1488856403.265653, -2.134644, +0.331787, -1.420654, +14.032346, -125.561096, -128.597153 
1488856403.269398, 1488856403.269398, -2.134644, +0.331787, -1.420654, +14.032346, -125.561096, -128.597153 
1488856403.273213, 1488856403.273213, -1.035278, +0.769653, -0.961426, -25.030155, -113.018372, -115.276222 
1488856403.277155, 1488856403.277155, -1.035278, +0.769653, -0.961426, -22.909184, -113.018372, -115.276222 
1488856403.281101, 1488856403.281101, -1.035278, +0.769653, -0.961426, -22.909184, -113.018372, -115.276222 
1488856403.285097, 1488856403.285097, -1.035278, +0.769653, -0.961426, -38.473148, -104.000427, -103.755836 
1488856403.289037, 1488856403.289037, -1.035278, +0.769653, -0.961426, -38.473148, -104.000427, -103.755836 
1488856403.292992, 1488856403.292992, -0.910645, -1.775146, -0.211182, -38.473148, -104.000427, -103.755836 
1488856403.296940, 1488856403.296940, -0.910645, -1.775146, -0.211182, -38.640995, -53.646427, -81.493263 
1488856403.300972, 1488856403.300972, -0.910645, -1.775146, -0.211182, -38.640995, -53.646427, -81.493263 
1488856403.305378, 1488856403.305378, -0.910645, -1.775146, -0.211182, -38.640995, -53.646427, -14.430886 
1488856403.309137, 1488856403.309137, -0.910645, -1.775146, -0.211182, +10.919553, -8.510929, -14.430886 
1488856403.312882, 1488856403.312882, -0.822754, +0.139893, -0.715210, +10.919553, -8.510929, -14.430886 
1488856403.316832, 1488856403.316832, -0.822754, +0.139893, -0.715210, +38.263302, -22.152287, +39.066429 
1488856403.320778, 1488856403.320778, -0.822754, +0.139893, -0.715210, +36.737423, -22.152287, +39.066429 
1488856403.324737, 1488856403.324737, -0.822754, +0.139893, -0.715210, +36.737423, -22.152287, +39.066429 
1488856403.328683, 1488856403.328683, -0.822754, +0.139893, -0.715210, +35.196285, -21.374088, +56.354637 
1488856403.332630, 1488856403.332630, +0.077759, +0.637695, -0.720825, +35.196285, -21.374088, +56.354637 
1488856403.336408, 1488856403.336408, +0.077759, +0.637695, -0.720825, +35.196285, -21.374088, +56.354637 
1488856403.340163, 1488856403.340163, +0.077759, +0.637695, -0.720825, +33.624630, -1.201969, +78.708763 
1488856403.343925, 1488856403.343925, +0.077759, +0.637695, -0.720825, +33.624630, -1.201969, +78.708763 
1488856403.347672, 1488856403.347672, +0.077759, +0.637695, -0.720825, +33.624630, -1.201969, +78.708763 
1488856403.351413, 1488856403.351413, +0.057495, +0.832275, -0.050415, +31.412106, +23.303646, +106.189842 
1488856403.355333, 1488856403.355333, +0.057495, +0.832275, -0.050415, +31.412106, +23.303646, +106.189842 
1488856403.359069, 1488856403.359069, +0.057495, +0.832275, -0.050415, +31.412106, +23.303646, +106.189842 
1488856403.362813, 1488856403.362813, +0.057495, +0.832275, -0.050415, +7.516843, +49.518246, +132.084000 
1488856403.366668, 1488856403.366668, +0.057495, +0.832275, -0.050415, +7.516843, +49.518246, +132.084000 
1488856403.370524, 1488856403.370524, +0.057495, +0.169434, -0.295410, +7.516843, +49.518246, +155.521500 
1488856403.374272, 1488856403.374272, -0.237671, +0.169434, -0.295410, -23.397465, +73.382996, +154.941666 
1488856403.378015, 1488856403.378015, -0.237671, +0.169434, -0.295410, -23.397465, +73.382996, +154.941666 
1488856403.381763, 1488856403.381763, -0.237671, +0.169434, -0.295410, -23.397465, +96.820496, +174.182999 
1488856403.385571, 1488856403.385571, -0.237671, +0.169434, -0.295410, -37.435551, +96.576355, +174.182999 
1488856403.389319, 1488856403.389319, -0.237671, +0.169434, -0.295410, -37.435551, +96.576355, +174.182999 
1488856403.393069, 1488856403.393069, -0.521118, +0.170898, -0.243164, -43.432255, +114.337585, +188.282120 
1488856403.397081, 1488856403.397081, -0.521118, +0.170898, -0.243164, -43.432255, +114.337585, +188.282120 
1488856403.400831, 1488856403.400831, -0.521118, +0.170898, -0.243164, -43.432255, +114.337585, +188.282120 
1488856403.404758, 1488856403.404758, -0.521118, +0.170898, -0.243164, -41.738529, +125.919006, +202.686417 
1488856403.409094, 1488856403.409094, -0.521118, +0.170898, -0.243164, -41.738529, +125.919006, +202.686417 
1488856403.412839, 1488856403.412839, -0.406128, +0.193115, -0.343872, -41.738529, +125.919006, +202.686417 
1488856403.416674, 1488856403.416674, -0.406128, +0.193115, -0.343872, -36.489506, +138.660095, +217.792618 
1488856403.420417, 1488856403.420417, -0.406128, +0.193115, -0.343872, -36.489506, +138.660095, +217.792618 
1488856403.424261, 1488856403.424261, -0.406128, +0.193115, -0.343872, -36.489506, +138.660095, +217.792618 
1488856403.428006, 1488856403.428006, -0.406128, +0.193115, -0.343872, -35.497684, +154.590271, +229.663956 
1488856403.431753, 1488856403.431753, -0.607300, +0.484253, -0.173218, -35.497684, +154.590271, +229.663956 
1488856403.435544, 1488856403.435544, -0.607300, +0.484253, -0.173218, -35.497684, +154.590271, +229.663956 
1488856403.439296, 1488856403.439296, -0.607300, +0.484253, -0.173218, -50.802250, +165.576599, +238.346207 
1488856403.443033, 1488856403.443033, -0.607300, +0.484253, -0.173218, -50.802250, +165.576599, +238.346207 
1488856403.446781, 1488856403.446781, -0.607300, +0.484253, -0.173218, -50.802250, +165.576599, +243.839371 
1488856403.450529, 1488856403.450529, -0.805908, +0.530762, -0.301147, -71.767822, +172.183655, +243.839371 
1488856403.454381, 1488856403.454381, -0.805908, +0.530762, -0.301147, -71.767822, +172.183655, +243.839371 
1488856403.458135, 1488856403.458135, -0.805908, +0.530762, -0.301147, -71.767822, +179.996155, +246.753799 
1488856403.461878, 1488856403.461878, -0.805908, +0.530762, -0.301147, -92.947021, +180.514954, +246.753799 
1488856403.465893, 1488856403.465893, -0.805908, +0.530762, -0.301147, -92.947021, +180.514954, +246.753799 
1488856403.469640, 1488856403.469640, -0.805908, +0.437012, -0.353149, -114.553467, +189.853333, +250.385391 
1488856403.473385, 1488856403.473385, -1.099365, +0.429321, -0.353149, -114.553467, +189.853333, +250.385391 
1488856403.477132, 1488856403.477132, -1.099365, +0.429321, -0.353149, -114.553467, +189.853333, +250.385391 
1488856403.480865, 1488856403.480865, -1.099365, +0.429321, -0.353149, -136.785522, +198.733948, +255.100357 
1488856403.484741, 1488856403.484741, -1.099365, +0.429321, -0.353149, -136.785522, +198.733948, +255.100357 
1488856403.488684, 1488856403.488684, -1.099365, +0.429321, -0.353149, -136.785522, +198.733948, +255.100357 
1488856403.492631, 1488856403.492631, -1.560425, +0.402588, -0.498901, -153.738037, +201.877258, +260.807159 
1488856403.496585, 1488856403.496585, -1.560425, +0.402588, -0.498901, -153.738037, +201.877258, +260.807159 
1488856403.500621, 1488856403.500621, -1.560425, +0.402588, -0.498901, -153.738037, +201.877258, +260.807159 
1488856403.504602, 1488856403.504602, -1.560425, +0.402588, -0.498901, -163.412109, +195.514343, +270.511749 
1488856403.509047, 1488856403.509047, -1.560425, +0.409912, -0.565918, -163.412109, +195.514343, +270.511749 
1488856403.513396, 1488856403.513396, -1.955200, +0.409912, -0.565918, -169.790283, +188.586853, +283.344391 
1488856403.517137, 1488856403.517137, -1.955200, +0.409912, -0.565918, -169.790283, +188.586853, +283.344391 
1488856403.520884, 1488856403.520884, -1.955200, +0.409912, -0.565918, -169.790283, +188.586853, +283.344391 
1488856403.524661, 1488856403.524661, -1.955200, +0.409912, -0.565918, -177.297607, +183.612488, +294.147614 
1488856403.528408, 1488856403.528408, -1.955200, +0.409912, -0.565918, -177.297607, +183.612488, +294.147614 
1488856403.532159, 1488856403.532159, -2.390015, -0.106934, -0.764404, -177.297607, +183.612488, +294.147614 
1488856403.535958, 1488856403.535958, -2.390015, -0.106934, -0.764404, -177.114502, +175.555847, +301.761749 
1488856403.539706, 1488856403.539706, -2.390015, -0.106934, -0.764404, -177.114502, +175.555847, +301.761749 
1488856403.543488, 1488856403.543488, -2.390015, -0.106934, -0.764404, -177.114502, +175.555847, +301.761749 
1488856403.547238, 1488856403.547238, -2.390015, -0.106934, -0.764404, -164.815918, +165.546082, +303.730133 
1488856403.550982, 1488856403.550982, -2.796631, -0.853760, -0.837646, -164.815918, +165.546082, +303.730133 
1488856403.554789, 1488856403.554789, -2.796631, -0.853760, -0.837646, -164.815918, +165.546082, +303.730133 
1488856403.558550, 1488856403.558550, -2.796631, -0.853760, -0.837646, -141.881958, +157.413147, +295.993927 
1488856403.562301, 1488856403.562301, -2.796631, -0.853760, -0.837646, -141.881958, +157.413147, +295.993927 
1488856403.566297, 1488856403.566297, -2.796631, -0.853760, -0.837646, -141.881958, +157.413147, +276.462677 
1488856403.570243, 1488856403.570243, -2.676025, -1.545654, -1.026611, -118.947998, +151.752136, +275.806549 
1488856403.574195, 1488856403.574195, -2.676025, -1.545654, -1.026611, -118.947998, +151.752136, +275.806549 
1488856403.578137, 1488856403.578137, -2.676025, -1.545654, -1.026611, -72.072998, +147.739075, +254.963028 
1488856403.582080, 1488856403.582080, -2.676025, -1.545654, -1.026611, -70.257202, +147.739075, +254.963028 
1488856403.586040, 1488856403.586040, -2.676025, -1.545654, -1.026611, -70.257202, +147.739075, +254.963028 
1488856403.589981, 1488856403.589981, -2.432983, -2.720093, +0.147705, -33.147831, +137.942932, +207.096207 
1488856403.593904, 1488856403.593904, -2.432983, -2.720093, +0.147705, -33.147831, +137.942932, +207.096207 
1488856403.597655, 1488856403.597655, -2.432983, -2.720093, +0.147705, -33.147831, +137.942932, +207.096207 
1488856403.601412, 1488856403.601412, -2.432983, -2.720093, +0.147705, -0.051517, +112.216614, +142.475235 
1488856403.605261, 1488856403.605261, -2.432983, -2.720093, +0.147705, -0.051517, +112.216614, +142.475235 
1488856403.609007, 1488856403.609007, -2.589233, -2.854370, +1.068115, -0.051517, +112.216614, +142.475235 
1488856403.612752, 1488856403.612752, -2.577881, -2.854370, +1.068115, +29.947262, +60.489315, +75.061913 
1488856403.616742, 1488856403.616742, -2.577881, -2.854370, +1.068115, +29.947262, +60.489315, +75.061913 
1488856403.620741, 1488856403.620741, -2.577881, -2.854370, +1.068115, +29.947262, +60.489315, -3.063088 
1488856403.624952, 1488856403.624952, -2.577881, -2.854370, +1.068115, +19.006710, -0.927311, -5.962258 
1488856403.628901, 1488856403.628901, -2.077881, -2.251099, +0.871948, +19.006710, -0.927311, -5.962258 
1488856403.632846, 1488856403.632846, -2.072144, -2.251099, +0.871948, +13.986569, -47.588688, -81.371193 
1488856403.636817, 1488856403.636817, -2.072144, -2.251099, +0.871948, +13.986569, -47.588688, -81.371193 
1488856403.640767, 1488856403.640767, -2.072144, -2.251099, +0.871948, +13.986569, -47.588688, -81.371193 
1488856403.644644, 1488856403.644644, -2.072144, -2.251099, +0.871948, +1.169187, -77.267029, -145.763290 
1488856403.648399, 1488856403.648399, -2.072144, -1.688599, +0.114014, +1.169187, -77.267029, -145.763290 
1488856403.652143, 1488856403.652143, -1.978271, -1.687988, +0.114014, +1.169187, -77.267029, -145.763290 
1488856403.655948, 1488856403.655948, -1.978271, -1.687988, +0.114014, -14.287967, -89.153625, -194.866074 
1488856403.659810, 1488856403.659810, -1.978271, -1.687988, +0.114014, -14.287967, -89.153625, -194.866074 
1488856403.663568, 1488856403.663568, -1.978271, -1.687988, +0.114014, -14.287967, -89.153625, -194.866074 
1488856403.667323, 1488856403.667323, -1.978271, -1.687988, +0.114014, -18.285770, -91.640808, -216.655624 
1488856403.671076, 1488856403.671076, -1.863037, +0.944946, -1.188477, -18.285770, -91.640808, -216.655624 
1488856403.674959, 1488856403.674959, -1.863037, +0.944946, -1.188477, -18.285770, -91.640808, -216.655624 
1488856403.678711, 1488856403.678711, -1.863037, +0.944946, -1.188477, -55.181522, -95.775940, -208.415878 
1488856403.682464, 1488856403.682464, -1.863037, +0.944946, -1.188477, -55.181522, -95.775940, -208.415878 
1488856403.686510, 1488856403.686510, -1.863037, +0.944946, -1.188477, -55.181522, -95.775940, -141.857040 
1488856403.690462, 1488856403.690462, -1.802002, +3.652466, -0.692139, -61.925907, -72.414734, -141.857040 
1488856403.694337, 1488856403.694337, -1.802002, +3.652466, -0.692139, -61.925907, -72.414734, -141.857040 
1488856403.698095, 1488856403.698095, -1.802002, +3.652466, -0.692139, +97.925171, -24.700504, -83.965187 
1488856403.701852, 1488856403.701852, -1.802002, +3.652466, -0.692139, +97.925171, -24.700504, -83.965187 
1488856403.705740, 1488856403.705740, -1.802002, +3.652466, -0.692139, +97.925171, -24.700504, -83.965187 
1488856403.709816, 1488856403.709816, -3.607788, -2.566406, +1.489380, -32.888432, -30.575138, -180.004013 
1488856403.713633, 1488856403.713633, -3.607788, -2.566406, +1.489380, -32.888432, -30.575138, -180.004013 
1488856403.717526, 1488856403.717526, -3.607788, -2.566406, +1.489380, -32.888432, -30.575138, -180.004013 
1488856403.721882, 1488856403.721882, -3.607788, -2.566406, +1.489380, -172.079102, -51.693302, -263.439056 
1488856403.725709, 1488856403.725709, -3.607788, -2.566406, +1.489380, -172.079102, -51.693302, -263.439056 
1488856403.729449, 1488856403.729449, -1.375732, -1.260376, -1.604126, -172.079102, -51.693302, -263.439056 
1488856403.733248, 1488856403.733248, -1.375732, -1.260376, -1.604126, -104.787842, -27.416569, -231.517685 
1488856403.736991, 1488856403.736991, -1.375732, -1.260376, -1.604126, -104.787842, -27.416569, -231.517685 
1488856403.740731, 1488856403.740731, -1.375732, -1.260376, -1.604126, -104.787842, -27.416569, -200.267685 
1488856403.744480, 1488856403.744480, -1.375732, -1.260376, -1.604126, +1.871091, -29.415470, -198.894394 
1488856403.748218, 1488856403.748218, -1.145996, -1.383301, +0.084106, +1.871091, -29.415470, -198.894394 
1488856403.751954, 1488856403.751954, -1.145996, -1.383301, +0.084106, +1.871091, -33.321720, -163.982285 
1488856403.755761, 1488856403.755761, -1.145996, -1.383301, +0.084106, +77.829346, -34.023624, -163.982285 
1488856403.759498, 1488856403.759498, -1.145996, -1.383301, +0.084106, +77.829346, -34.023624, -163.982285 
1488856403.763379, 1488856403.763379, -1.145996, -1.383301, +0.084106, +128.244385, -52.425724, -128.108871 
1488856403.767126, 1488856403.767126, -1.145996, -1.383301, -0.783936, +128.244385, -52.425724, -128.108871 
1488856403.770873, 1488856403.770873, -0.224487, -0.827026, -0.783936, +128.244385, -52.425724, -128.108871 
1488856403.774748, 1488856403.774748, -0.224487, -0.827026, -0.783936, +178.552612, -55.950504, -88.863258 
1488856403.778491, 1488856403.778491, -0.224487, -0.827026, -0.783936, +178.552612, -55.950504, -88.863258 
1488856403.782233, 1488856403.782233, -0.224487, -0.827026, -0.783936, +178.552612, -55.950504, -88.863258 
1488856403.785995, 1488856403.785995, -0.224487, -0.827026, -0.783936, +185.510620, -42.278629, -48.839455 
1488856403.789741, 1488856403.789741, -1.711426, +0.219604, +0.035889, +185.510620, -42.278629, -48.839455 
1488856403.793524, 1488856403.793524, -1.711426, +0.219604, +0.035889, +185.510620, -42.278629, -48.839455 
1488856403.797276, 1488856403.797276, -1.711426, +0.219604, +0.035889, +141.733154, -39.974552, -34.053688 
1488856403.801029, 1488856403.801029, -1.711426, +0.219604, +0.035889, +141.733154, -39.974552, -34.053688 
1488856403.805040, 1488856403.805040, -1.711426, +0.219604, +0.035889, +141.733154, -39.974552, -34.053688 
1488856403.808985, 1488856403.808985, -1.569946, +0.440063, -0.242676, +65.027222, -50.182682, -58.879738 
1488856403.812924, 1488856403.812924, -1.569946, +0.440063, -0.242676, +65.027222, -50.182682, -58.879738 
1488856403.816913, 1488856403.816913, -1.569946, +0.440063, -0.242676, +65.027222, -50.182682, -73.390846 
1488856403.820864, 1488856403.820864, -1.569946, +0.440063, -0.242676, -0.555057, -41.820866, -73.390846 
1488856403.824823, 1488856403.824823, -1.569946, +0.440063, -0.242676, -0.555057, -41.820866, -73.390846 
1488856403.828764, 1488856403.828764, -1.079102, -0.093018, -0.094604, -29.272099, -32.665592, -74.916725 
1488856403.833379, 1488856403.833379, -1.079102, -0.093018, -0.094604, -29.272099, -32.665592, -74.916725 
1488856403.837333, 1488856403.837333, -1.079102, -0.093018, -0.094604, -29.272099, -32.665592, -74.916725 
1488856403.841285, 1488856403.841285, -1.079102, -0.093018, -0.094604, -26.632328, -23.998600, -61.778908 
1488856403.845123, 1488856403.845123, -1.079102, -0.093018, -0.094604, -26.632328, -23.998600, -61.778908 
1488856403.848876, 1488856403.848876, -1.023926, -0.708130, -0.231934, -26.632328, -23.998600, -61.778908 
1488856403.852621, 1488856403.852621, -1.023926, -0.708130, -0.231934, -6.048221, -21.831852, -39.638405 
1488856403.856540, 1488856403.856540, -1.023926, -0.708130, -0.231934, -6.048221, -21.831852, -39.638405 
1488856403.860479, 1488856403.860479, -1.023926, -0.708130, -0.231934, -6.048221, -21.831852, -14.873391 
1488856403.864356, 1488856403.864356, -1.023926, -0.708130, -0.231934, +31.747799, -19.298893, -14.873391 
1488856403.868108, 1488856403.868108, -1.170166, -0.494507, -0.588257, +31.747799, -19.298893, -14.873391 
1488856403.871850, 1488856403.871850, -1.170166, -0.494507, -0.588257, +31.747799, -11.486393, +4.978293 
1488856403.875606, 1488856403.875606, -1.170166, -0.494507, -0.588257, +63.623409, -13.653141, +4.978293 
1488856403.879353, 1488856403.879353, -1.170166, -0.494507, -0.588257, +63.623409, -13.653141, +4.978293 
1488856403.883168, 1488856403.883168, -1.170166, -0.494507, -0.588257, +77.325806, -10.036808, +15.293235 
1488856403.886939, 1488856403.886939, -1.138916, -0.088135, -0.243896, +77.325806, -10.036808, +15.293235 
1488856403.890690, 1488856403.890690, -1.149902, -0.088135, -0.243896, +77.325806, -10.036808, +15.293235 
1488856403.894563, 1488856403.894563, -1.149902, -0.088135, -0.243896, +75.784668, -8.724552, +16.513939 
1488856403.898307, 1488856403.898307, -1.149902, -0.088135, -0.243896, +75.784668, -8.724552, +16.513939 
1488856403.902055, 1488856403.902055, -1.149902, -0.088135, -0.243896, +75.784668, -8.724552, +16.513939 
1488856403.905964, 1488856403.905964, -1.149902, -0.088135, -0.243896, +61.258297, -8.388859, +11.478538 
1488856403.909903, 1488856403.909903, -1.201050, +0.423462, -0.231812, +61.258297, -8.388859, +11.478538 
1488856403.913896, 1488856403.913896, -1.201050, +0.423462, -0.231812, +61.258297, -8.388859, +11.478538 
1488856403.917835, 1488856403.917835, -1.201050, +0.423462, -0.231812, +42.581539, -10.509830, +6.916160 
1488856403.921760, 1488856403.921760, -1.201050, +0.423462, -0.231812, +42.581539, -10.509830, +6.916160 
1488856403.925781, 1488856403.925781, -1.201050, +0.423462, -0.294312, +42.581539, -10.509830, +6.916160 
1488856403.930247, 1488856403.930247, -1.297485, -0.039062, -0.286133, +34.540157, -11.562687, +6.092185 
1488856403.934071, 1488856403.934071, -1.297485, -0.039062, -0.286133, +34.540157, -11.562687, +6.092185 
1488856403.937808, 1488856403.937808, -1.297485, -0.039062, -0.286133, +39.010983, -17.635685, +2.246970 
1488856403.941557, 1488856403.941557, -1.297485, -0.039062, -0.286133, +39.010983, -17.635685, +2.246970 
1488856403.945305, 1488856403.945305, -1.297485, -0.039062, -0.286133, +39.010983, -17.635685, +2.246970 
1488856403.949051, 1488856403.949051, -1.053589, +0.079956, -0.474609, +45.190792, -26.668888, -2.422219 
1488856403.952803, 1488856403.952803, -1.053589, +0.079956, -0.474609, +45.190792, -26.668888, -2.422219 
1488856403.956657, 1488856403.956657, -1.053589, +0.079956, -0.474609, +45.190792, -26.668888, -2.422219 
1488856403.960403, 1488856403.960403, -1.053589, +0.079956, -0.474609, +48.089962, -30.285221, -7.243997 
1488856403.964155, 1488856403.964155, -1.053589, +0.079956, -0.474609, +48.089962, -30.285221, -7.243997 
1488856403.967899, 1488856403.967899, -0.958252, +0.076050, -0.421021, +48.089962, -30.285221, -7.243997 
1488856403.971641, 1488856403.971641, -0.958252, +0.076050, -0.421021, +49.203854, -32.314640, -15.712625 
1488856403.975545, 1488856403.975545, -0.958252, +0.076050, -0.421021, +49.203854, -32.314640, -15.712625 
1488856403.979299, 1488856403.979299, -0.958252, +0.076050, -0.421021, +49.203854, -32.314640, -15.712625 
1488856403.983125, 1488856403.983125, -0.958252, +0.076050, -0.421021, +43.741207, -39.135319, -26.348000 
1488856403.987094, 1488856403.987094, -0.805176, +0.224365, -0.572754, +43.741207, -39.135319, -26.348000 
1488856403.991046, 1488856403.991046, -0.805176, +0.224365, -0.572754, +43.741207, -39.135319, -34.160500 
1488856403.994913, 1488856403.994913, -0.805176, +0.224365, -0.572754, +41.482906, -43.697697, -33.748512 
1488856403.998663, 1488856403.998663, -0.805176, +0.224365, -0.572754, +41.482906, -43.697697, -33.748512 
1488856404.002415, 1488856404.002415, -0.805176, +0.224365, -0.572754, +41.482906, -43.697697, -40.233498 
1488856404.006356, 1488856404.006356, -0.921021, -0.179199, -0.423096, +40.430050, -45.635563, -40.233498 
1488856404.010303, 1488856404.010303, -0.921021, -0.179199, -0.423096, +40.430050, -45.635563, -40.233498 
1488856404.014310, 1488856404.014310, -0.921021, -0.179199, -0.423096, +43.954830, -49.587589, -46.932106 
1488856404.018255, 1488856404.018255, -0.921021, -0.179199, -0.423096, +43.954830, -49.587589, -46.932106 
1488856404.022205, 1488856404.022205, -0.921021, -0.179199, -0.423096, +43.954830, -49.587589, -46.932106 
1488856404.026168, 1488856404.026168, -1.069580, +0.006470, -0.384888, +48.685055, -52.959782, -51.982765 
1488856404.030115, 1488856404.030115, -1.069580, +0.006470, -0.384888, +48.685055, -52.959782, -51.982765 
1488856404.034102, 1488856404.034102, -1.069580, +0.006470, -0.384888, +48.685055, -52.959782, -51.982765 
1488856404.038047, 1488856404.038047, -1.069580, +0.006470, -0.384888, +49.585323, -56.682926, -56.255226 
1488856404.042201, 1488856404.042201, -1.069580, +0.006470, -0.384888, +49.585323, -56.682926, -56.255226 
1488856404.046196, 1488856404.046196, -1.177368, -0.065186, -0.183105, +49.585323, -60.970646, -63.564186 
1488856404.049945, 1488856404.049945, -1.177368, -0.065186, -0.183105, +47.891598, -60.970646, -63.564186 
1488856404.053721, 1488856404.053721, -1.177368, -0.065186, -0.183105, +47.891598, -60.970646, -63.564186 
1488856404.057463, 1488856404.057463, -1.177368, -0.065186, -0.183105, +48.303585, -65.197327, -73.299294 
1488856404.061207, 1488856404.061207, -1.177368, -0.065186, -0.183105, +48.303585, -65.197327, -73.299294 
1488856404.065023, 1488856404.065023, -1.177368, -0.065186, -0.239868, +48.303585, -65.197327, -73.299294 
1488856404.068773, 1488856404.068773, -1.250244, +0.420410, -0.239868, +43.481808, -73.284485, -82.958107 
1488856404.072515, 1488856404.072515, -1.250244, +0.420410, -0.239868, +43.481808, -73.284485, -82.958107 
1488856404.076277, 1488856404.076277, -1.250244, +0.420410, -0.239868, +43.481808, -73.284485, -82.958107 
1488856404.080017, 1488856404.080017, -1.250244, +0.420410, -0.239868, +38.278561, -79.067566, -91.594582 
1488856404.083781, 1488856404.083781, -1.250244, +0.420410, -0.239868, +38.278561, -79.067566, -91.594582 
1488856404.087522, 1488856404.087522, -1.562500, +0.279053, -0.321899, +38.278561, -79.067566, -91.594582 
1488856404.091270, 1488856404.091270, -1.562500, +0.279053, -0.321899, +36.569576, -85.750916, -102.992897 
1488856404.095140, 1488856404.095140, -1.562500, +0.279053, -0.321899, +36.569576, -85.750916, -102.992897 
1488856404.098889, 1488856404.098889, -1.562500, +0.279053, -0.321899, +36.569576, -85.750916, -102.992897 
1488856404.102751, 1488856404.102751, -1.562500, +0.279053, -0.321899, +35.577755, -91.961243, -111.141090 
1488856404.106839, 1488856404.106839, -1.774536, +0.378784, -0.352661, +35.577755, -91.961243, -111.141090 
1488856404.110790, 1488856404.110790, -1.774536, +0.378784, -0.352661, +35.577755, -91.961243, -118.953590 
1488856404.114752, 1488856404.114752, -1.774536, +0.378784, -0.352661, +35.165768, -96.462585, -115.566139 
1488856404.118701, 1488856404.118701, -1.774536, +0.378784, -0.352661, +35.165768, -96.462585, -115.566139 
1488856404.122646, 1488856404.122646, -1.774536, +0.378784, -0.352661, +39.072018, -100.780823, -119.975929 
1488856404.126612, 1488856404.126612, -2.012817, +0.395386, -0.618774, +37.881832, -100.780823, -119.975929 
1488856404.130558, 1488856404.130558, -2.012817, +0.395386, -0.618774, +37.881832, -100.780823, -119.975929 
1488856404.134511, 1488856404.134511, -2.012817, +0.395386, -0.618774, +46.792965, -106.716492, -124.080544 
1488856404.138461, 1488856404.138461, -2.012817, +0.395386, -0.618774, +46.792965, -106.716492, -124.080544 
1488856404.142398, 1488856404.142398, -2.012817, +0.395386, -0.618774, +46.792965, -106.716492, -124.080544 
1488856404.146198, 1488856404.146198, -1.974976, +0.631470, -0.984619, +58.969479, -112.835266, -126.644020 
1488856404.149949, 1488856404.149949, -1.974976, +0.631470, -0.984619, +58.969479, -112.835266, -126.644020 
1488856404.153710, 1488856404.153710, -1.974976, +0.631470, -0.984619, +58.969479, -112.835266, -126.644020 
1488856404.157458, 1488856404.157458, -1.974976, +0.631470, -0.984619, +75.555786, -117.092468, -127.590065 
1488856404.161342, 1488856404.161342, -1.974976, +0.631470, -0.984619, +75.555786, -117.092468, -127.590065 
1488856404.165528, 1488856404.165528, -1.953857, +1.235352, -1.508179, +75.555786, -117.092468, -123.836403 
1488856404.169471, 1488856404.169471, -1.953857, +1.235352, -1.508179, +96.002563, -122.951843, -123.836403 
1488856404.173467, 1488856404.173467, -1.953857, +1.235352, -1.508179, +96.002563, -122.951843, -123.836403 
1488856404.177415, 1488856404.177415, -1.953857, +1.235352, -1.508179, +123.727783, -126.201965, -117.671852 
1488856404.181361, 1488856404.181361, -1.953857, +1.235352, -1.508179, +123.727783, -126.201965, -117.671852 
1488856404.185324, 1488856404.185324, -2.272827, +0.822266, -1.412354, +123.727783, -126.201965, -117.671852 
1488856404.189268, 1488856404.189268, -2.272827, +0.822266, -1.412354, +136.621460, -119.350769, -118.724709 
1488856404.193254, 1488856404.193254, -2.272827, +0.822266, -1.412354, +136.621460, -119.350769, -118.724709 
1488856404.197003, 1488856404.197003, -2.272827, +0.822266, -1.412354, +136.621460, -119.350769, -118.724709 
1488856404.200770, 1488856404.200770, -2.272827, +0.822266, -1.412354, +130.502686, -113.293030, -124.065285 
1488856404.204525, 1488856404.204525, -2.397827, +0.508667, -1.357544, +130.502686, -113.293030, -124.065285 
1488856404.208279, 1488856404.208279, -2.384766, +0.508667, -1.357544, +130.502686, -113.293030, -124.065285 
1488856404.212032, 1488856404.212032, -2.384766, +0.508667, -1.357544, +123.941406, -115.627625, -121.440773 
1488856404.215911, 1488856404.215911, -2.384766, +0.508667, -1.357544, +123.941406, -115.627625, -121.440773 
1488856404.219667, 1488856404.219667, -2.384766, +0.508667, -1.357544, +123.941406, -115.627625, -121.440773 
1488856404.223591, 1488856404.223591, -2.384766, +0.508667, -1.354858, +107.660278, -125.576355, -114.528542 
1488856404.227543, 1488856404.227543, -1.751221, +0.498779, -1.354858, +107.660278, -125.576355, -114.528542 
1488856404.231481, 1488856404.231481, -1.751221, +0.498779, -1.354858, +56.879025, -131.008484, -109.966164 
1488856404.235437, 1488856404.235437, -1.751221, +0.498779, -1.354858, +58.404903, -131.008484, -109.966164 
1488856404.239386, 1488856404.239386, -1.751221, +0.498779, -1.354858, +58.404903, -131.008484, -109.966164 
1488856404.243347, 1488856404.243347, -1.751221, +0.498779, -0.604858, +18.640499, -121.517517, -105.159645 
1488856404.247405, 1488856404.247405, -0.889893, -0.100952, -0.593872, +18.640499, -121.517517, -105.159645 
1488856404.251354, 1488856404.251354, -0.889893, -0.100952, -0.593872, +18.640499, -121.517517, -105.159645 
1488856404.255202, 1488856404.255202, -0.889893, -0.100952, -0.593872, -13.189334, -95.363953, -108.699684 
1488856404.258951, 1488856404.258951, -0.889893, -0.100952, -0.593872, -13.189334, -95.363953, -108.699684 
1488856404.262703, 1488856404.262703, -0.889893, -0.100952, -0.593872, -13.189334, -95.363953, -108.699684 
1488856404.266485, 1488856404.266485, -1.620605, -0.885986, +0.117065, -28.463383, -23.846012, -73.573952 
1488856404.270236, 1488856404.270236, -1.620605, -0.885986, +0.117065, -28.463383, -23.846012, -73.573952 
1488856404.274103, 1488856404.274103, -1.620605, -0.885986, +0.117065, -28.463383, -23.846012, -14.980203 
1488856404.278052, 1488856404.278052, -1.620605, -0.885986, +0.117065, +11.438352, -17.742496, -14.003640 
1488856404.282132, 1488856404.282132, -1.620605, -0.885986, +0.117065, +11.438352, -17.742496, -14.003640 
1488856404.286522, 1488856404.286522, -0.504150, +0.363647, -0.860962, +27.292233, -32.268864, +14.927024 
1488856404.290470, 1488856404.290470, -0.504150, +0.363647, -0.860962, +27.292233, -32.268864, +14.927024 
1488856404.294421, 1488856404.294421, -0.504150, +0.363647, -0.860962, +27.292233, -32.268864, +14.927024 
1488856404.298372, 1488856404.298372, -0.504150, +0.363647, -0.860962, +30.710201, -18.139225, +40.775414 
1488856404.302315, 1488856404.302315, -0.504150, +0.363647, -0.860962, +30.710201, -18.139225, +40.775414 
1488856404.306148, 1488856404.306148, +0.234131, +0.770874, -0.174927, +30.710201, -18.139225, +40.775414 
1488856404.309905, 1488856404.309905, +0.234131, +0.770874, -0.174927, +25.094967, +4.596371, +66.761131 
1488856404.313694, 1488856404.313694, +0.234131, +0.770874, -0.174927, +25.094967, +4.596371, +66.761131 
1488856404.317454, 1488856404.317454, +0.234131, +0.770874, -0.174927, +25.094967, +4.596371, +66.761131 
1488856404.321204, 1488856404.321204, +0.234131, +0.770874, -0.174927, -1.333255, +35.419125, +90.763206 
1488856404.325000, 1488856404.325000, -0.049805, +0.459351, -0.170532, -1.333255, +35.419125, +90.763206 
1488856404.328751, 1488856404.328751, -0.049805, +0.459351, -0.170532, -1.333255, +35.419125, +114.200706 
1488856404.332501, 1488856404.332501, -0.049805, +0.459351, -0.170532, -34.429569, +63.357967, +111.286278 
1488856404.336343, 1488856404.336343, -0.049805, +0.459351, -0.170532, -34.429569, +63.357967, +111.286278 
1488856404.340091, 1488856404.340091, -0.049805, +0.459351, -0.170532, -34.429569, +90.701721, +130.405533 
1488856404.344020, 1488856404.344020, -0.393066, +0.099731, -0.268555, -53.976078, +87.588928, +130.405533 
1488856404.347967, 1488856404.347967, -0.393066, +0.099731, -0.268555, -53.976078, +87.588928, +130.405533 
1488856404.351916, 1488856404.351916, -0.393066, +0.099731, -0.268555, -56.676884, +105.594299, +147.312271 
1488856404.355761, 1488856404.355761, -0.393066, +0.099731, -0.268555, -56.676884, +105.594299, +147.312271 
1488856404.359520, 1488856404.359520, -0.393066, +0.099731, -0.268555, -56.676884, +105.594299, +147.312271 
1488856404.363318, 1488856404.363318, -0.393066, +0.120361, -0.218262, -49.306889, +119.281433, +162.677872 
1488856404.367262, 1488856404.367262, -0.396118, +0.120361, -0.218262, -49.306889, +119.281433, +162.677872 
1488856404.371213, 1488856404.371213, -0.396118, +0.120361, -0.218262, -49.306889, +119.281433, +162.677872 
1488856404.375074, 1488856404.375074, -0.396118, +0.120361, -0.218262, -40.014286, +131.686829, +177.616226 
1488856404.378827, 1488856404.378827, -0.396118, +0.120361, -0.218262, -40.014286, +131.686829, +177.616226 
1488856404.382578, 1488856404.382578, -0.396118, +0.120361, -0.235352, -40.014286, +131.686829, +177.616226 
1488856404.386559, 1488856404.386559, -0.415039, +0.194336, -0.235352, -39.129276, +144.717834, +190.448868 
1488856404.390509, 1488856404.390509, -0.415039, +0.194336, -0.235352, -39.129276, +144.717834, +190.448868 
1488856404.394696, 1488856404.394696, -0.415039, +0.194336, -0.235352, -39.129276, +158.862732, +201.953995 
1488856404.398611, 1488856404.398611, -0.415039, +0.194336, -0.235352, -44.637699, +158.862732, +201.953995 
1488856404.403130, 1488856404.403130, -0.633789, +0.369629, -0.281128, -44.637699, +158.862732, +201.953995 
1488856404.406890, 1488856404.406890, -0.632935, +0.369629, -0.281128, -50.237675, +171.649597, +211.155045 
1488856404.410646, 1488856404.410646, -0.632935, +0.369629, -0.281128, -50.237675, +171.649597, +211.155045 
1488856404.414502, 1488856404.414502, -0.632935, +0.369629, -0.281128, -50.237675, +171.649597, +211.155045 
1488856404.418428, 1488856404.418428, -0.632935, +0.369629, -0.281128, -61.864872, +179.858826, +217.945206 
1488856404.422347, 1488856404.422347, -0.632935, +0.369629, -0.347778, -61.864872, +179.858826, +217.945206 
1488856404.426254, 1488856404.426254, -0.795288, +0.529419, -0.347778, -61.864872, +179.858826, +217.945206 
1488856404.430138, 1488856404.430138, -0.795288, +0.529419, -0.347778, -79.595581, +187.869690, +224.521744 
1488856404.434092, 1488856404.434092, -0.795288, +0.529419, -0.347778, -79.595581, +187.869690, +224.521744 
1488856404.437839, 1488856404.437839, -0.795288, +0.529419, -0.347778, -79.595581, +187.869690, +230.915176 
1488856404.442238, 1488856404.442238, -0.795288, +0.404419, -0.346436, -96.364990, +195.651672, +230.915176 
1488856404.446018, 1488856404.446018, -1.120605, +0.386963, -0.346436, -96.364990, +195.651672, +230.915176 
1488856404.449763, 1488856404.449763, -1.120605, +0.386963, -0.346436, -111.104980, +202.655457, +237.461197 
1488856404.453518, 1488856404.453518, -1.120605, +0.386963, -0.346436, -111.104980, +202.655457, +237.461197 
1488856404.457264, 1488856404.457264, -1.120605, +0.386963, -0.346436, -111.104980, +202.655457, +237.461197 
1488856404.461008, 1488856404.461008, -1.120605, +0.386963, -0.346436, -121.053711, +205.951355, +245.243179 
1488856404.464836, 1488856404.464836, -1.481689, +0.386963, -0.435791, -121.053711, +205.951355, +245.243179 
1488856404.468584, 1488856404.468584, -1.481689, +0.386963, -0.435791, -121.053711, +205.951355, +245.243179 
1488856404.472324, 1488856404.472324, -1.481689, +0.386963, -0.435791, -129.598633, +201.862000, +254.779922 
1488856404.476116, 1488856404.476116, -1.481689, +0.386963, -0.435791, -129.598633, +201.862000, +254.779922 
1488856404.479860, 1488856404.479860, -1.481689, +0.386963, -0.435791, -129.598633, +201.862000, +254.779922 
1488856404.483791, 1488856404.483791, -1.713745, +0.412842, -0.492432, -135.900513, +196.338318, +265.369537 
1488856404.487540, 1488856404.487540, -1.713745, +0.412842, -0.492432, -135.900513, +196.338318, +265.369537 
1488856404.491293, 1488856404.491293, -1.713745, +0.412842, -0.492432, -135.900513, +196.338318, +265.369537 
1488856404.495146, 1488856404.495146, -1.713745, +0.412842, -0.492432, -139.837280, +194.598816, +278.354767 
1488856404.498902, 1488856404.498902, -1.713745, +0.412842, -0.492432, -139.837280, +194.598816, +278.354767 
1488856404.502648, 1488856404.502648, -2.299438, +0.296021, -0.679810, -139.837280, +194.598816, +278.354767 
1488856404.506592, 1488856404.506592, -2.299438, +0.296021, -0.679810, -147.665039, +194.095276, +291.233185 
1488856404.510533, 1488856404.510533, -2.299438, +0.296021, -0.679810, -147.665039, +194.095276, +291.233185 
1488856404.514491, 1488856404.514491, -2.299438, +0.296021, -0.679810, -155.477539, +189.624451, +298.404816 
1488856404.518432, 1488856404.518432, -2.299438, +0.296021, -0.679810, -158.483521, +189.624451, +298.404816 
1488856404.522380, 1488856404.522380, -3.022827, -0.424683, -0.728394, -158.483521, +189.624451, +298.404816 
1488856404.526338, 1488856404.526338, -3.022827, -0.424683, -0.728394, -153.356567, +176.471375, +301.899078 
1488856404.530288, 1488856404.530288, -3.022827, -0.424683, -0.728394, -153.356567, +176.471375, +301.899078 
1488856404.534283, 1488856404.534283, -3.022827, -0.424683, -0.728394, -153.356567, +176.471375, +301.899078 
1488856404.538227, 1488856404.538227, -3.022827, -0.424683, -0.728394, -130.926147, +154.315613, +296.939972 
1488856404.542292, 1488856404.542292, -2.657593, -1.048218, -0.803345, -130.926147, +154.315613, +296.939972 
1488856404.546096, 1488856404.546096, -2.657593, -1.048218, -0.803345, -130.926147, +154.315613, +296.939972 
1488856404.549996, 1488856404.549996, -2.657593, -1.048218, -0.803345, -110.494629, +136.508606, +283.496979 
1488856404.554117, 1488856404.554117, -2.657593, -1.048218, -0.803345, -110.494629, +136.508606, +283.496979 
1488856404.558065, 1488856404.558065, -2.657593, -1.048218, -0.803345, -55.807133, +135.425232, +261.341217 
1488856404.562015, 1488856404.562015, -2.114136, -2.267212, -0.819702, -55.059452, +135.425232, +261.341217 
1488856404.565976, 1488856404.565976, -2.114136, -2.267212, -0.819702, -55.059452, +135.425232, +261.341217 
1488856404.569925, 1488856404.569925, -2.114136, -2.267212, -0.819702, -3.835696, +144.656799, +214.588272 
1488856404.573882, 1488856404.573882, -2.114136, -2.267212, -0.819702, -3.835696, +144.656799, +214.588272 
1488856404.577825, 1488856404.577825, -2.114136, -2.267212, -0.819702, -3.835696, +144.656799, +214.588272 
1488856404.581768, 1488856404.581768, -2.770386, -2.632935, +1.327271, +18.396358, +125.003479, +151.813614 
1488856404.585584, 1488856404.585584, -2.767212, -2.632935, +1.327271, +18.396358, +125.003479, +151.813614 
1488856404.589331, 1488856404.589331, -2.767212, -2.632935, +1.327271, +18.396358, +125.003479, +151.813614 
1488856404.593074, 1488856404.593074, -2.767212, -2.632935, +1.327271, +58.374386, +61.725277, +89.817162 
1488856404.596828, 1488856404.596828, -2.767212, -2.632935, +1.327271, +58.374386, +61.725277, +89.817162 
1488856404.600577, 1488856404.600577, -2.767212, -2.632935, +1.327271, +58.374386, +61.725277, +89.817162 
1488856404.604416, 1488856404.604416, -2.124878, -2.114746, +1.039673, +40.338497, -0.042301, +12.653464 
1488856404.608160, 1488856404.608160, -2.124878, -2.114746, +1.039673, +40.338497, -0.042301, +12.653464 
1488856404.611913, 1488856404.611913, -2.124878, -2.114746, +1.039673, +40.338497, -0.042301, -66.493874 
1488856404.615940, 1488856404.615940, -2.124878, -2.114746, +1.039673, +19.800167, -39.821964, -66.493874 
1488856404.619883, 1488856404.619883, -2.124878, -2.114746, +1.039673, +19.800167, -39.821964, -66.493874 
1488856404.623869, 1488856404.623869, -2.118408, -1.880371, +0.716431, +0.802976, -73.040344, -138.164413 
1488856404.627807, 1488856404.627807, -2.118408, -1.880371, +0.716431, +0.802976, -73.040344, -138.164413 
1488856404.631749, 1488856404.631749, -2.118408, -1.880371, +0.716431, +0.802976, -73.040344, -138.164413 
1488856404.635700, 1488856404.635700, -2.118408, -1.880371, +0.716431, -16.683598, -91.411926, -192.958725 
1488856404.639645, 1488856404.639645, -2.118408, -1.880371, +0.716431, -16.683598, -91.411926, -192.958725 
1488856404.643572, 1488856404.643572, -1.981934, -0.925781, -0.172363, -16.683598, -91.411926, -192.958725 
1488856404.647330, 1488856404.647330, -1.981934, -0.925781, -0.172363, -19.399662, -87.795593, -214.794052 
1488856404.651168, 1488856404.651168, -1.981934, -0.925781, -0.172363, -19.399662, -87.795593, -214.794052 
1488856404.655054, 1488856404.655054, -1.981934, -0.925781, -0.172363, -19.399662, -87.795593, -214.794052 
1488856404.659529, 1488856404.659529, -1.981934, -0.925781, -0.172363, -40.868778, -93.181946, -207.408798 
1488856404.663333, 1488856404.663333, -0.703369, +3.577515, -2.276123, -40.868778, -93.181946, -207.408798 
1488856404.667079, 1488856404.667079, -0.703369, +3.577515, -2.276123, -111.181274, -80.837585, -177.242172 
1488856404.670832, 1488856404.670832, -0.703369, +3.577515, -2.276123, -110.677734, -80.837585, -177.242172 
1488856404.674624, 1488856404.674624, -0.703369, +3.577515, -2.276123, -110.677734, -80.837585, -177.242172 
1488856404.678370, 1488856404.678370, -0.703369, +3.577515, -2.276123, +8.707028, -27.798038, -75.298195 
1488856404.682109, 1488856404.682109, -2.772217, +1.132812, +0.075684, +8.707028, -27.798038, -75.298195 
1488856404.685860, 1488856404.685860, -2.772217, +1.132812, +0.075684, +8.707028, -27.798038, -75.298195 
1488856404.689707, 1488856404.689707, -2.772217, +1.132812, +0.075684, +74.579224, +22.861141, -93.196754 
1488856404.693495, 1488856404.693495, -2.772217, +1.132812, +0.075684, +74.579224, +22.861141, -93.196754 
1488856404.697246, 1488856404.697246, -2.772217, +1.132812, +0.075684, +74.579224, +22.861141, -93.196754 
1488856404.700989, 1488856404.700989, -2.975464, -2.657959, +0.691528, -94.152466, -53.051334, -205.837143 
1488856404.704789, 1488856404.704789, -2.975464, -2.657959, +0.691528, -94.152466, -53.051334, -205.837143 
1488856404.708537, 1488856404.708537, -2.975464, -2.657959, +0.691528, -94.152466, -53.051334, -205.837143 
1488856404.712294, 1488856404.712294, -2.975464, -2.657959, +0.691528, -109.991089, -49.221378, -217.815292 
1488856404.716343, 1488856404.716343, -2.975464, -2.657959, +0.691528, -109.991089, -49.221378, -217.815292 
1488856404.720289, 1488856404.720289, -2.975464, -1.564209, -1.418457, -109.991089, -49.221378, -217.815292 
1488856404.724279, 1488856404.724279, -1.232300, -1.565918, -1.418457, -27.013798, -32.070499, -195.384872 
1488856404.728229, 1488856404.728229, -1.232300, -1.565918, -1.418457, -27.013798, -32.070499, -195.384872 
1488856404.732176, 1488856404.732176, -1.232300, -1.565918, -1.418457, -27.013798, -37.594181, -175.578964 
1488856404.736133, 1488856404.736133, -1.232300, -1.565918, -1.418457, +80.255493, -37.594181, -175.578964 
1488856404.740081, 1488856404.740081, -1.232300, -0.722168, +0.059326, +80.255493, -37.594181, -175.578964 
1488856404.744023, 1488856404.744023, -1.535767, -0.723877, +0.059326, +114.099487, -60.497623, -154.476059 
1488856404.747779, 1488856404.747779, -1.535767, -0.723877, +0.059326, +114.099487, -60.497623, -154.476059 
1488856404.751521, 1488856404.751521, -1.535767, -0.723877, +0.059326, +114.099487, -60.497623, -154.476059 
1488856404.755501, 1488856404.755501, -1.535767, -0.723877, +0.059326, +139.474854, -71.194031, -125.301247 
1488856404.759447, 1488856404.759447, -1.535767, -0.723877, -0.440674, +139.474854, -71.194031, -125.301247 
1488856404.763401, 1488856404.763401, -0.201050, -0.393555, -0.460327, +139.474854, -71.194031, -125.301247 
1488856404.767346, 1488856404.767346, -0.201050, -0.393555, -0.460327, +155.115112, -57.247501, -90.541725 
1488856404.771447, 1488856404.771447, -0.201050, -0.393555, -0.460327, +155.115112, -57.247501, -90.541725 
1488856404.775928, 1488856404.775928, -0.201050, -0.393555, -0.460327, +143.396362, -45.025211, -70.903664 
1488856404.779675, 1488856404.779675, -0.201050, -0.393555, -0.023193, +142.465576, -45.025211, -70.903664 
1488856404.783491, 1488856404.783491, -1.363525, +0.334717, -0.023193, +142.465576, -45.025211, -70.903664 
1488856404.787229, 1488856404.787229, -1.363525, +0.334717, -0.023193, +92.248901, -43.941837, -73.802834 
1488856404.790969, 1488856404.790969, -1.363525, +0.334717, -0.023193, +92.248901, -43.941837, -73.802834 
1488856404.794707, 1488856404.794707, -1.363525, +0.334717, -0.023193, +92.248901, -43.941837, -73.802834 
1488856404.798448, 1488856404.798448, -1.363525, +0.334717, -0.023193, +31.854610, -41.805607, -81.401711 
1488856404.802190, 1488856404.802190, -1.654297, -0.142212, -0.399170, +31.854610, -41.805607, -81.401711 
1488856404.805984, 1488856404.805984, -1.654297, -0.142212, -0.399170, +31.854610, -41.805607, -81.401711 
1488856404.809727, 1488856404.809727, -1.654297, -0.142212, -0.399170, +2.710324, -36.724430, -83.141212 
1488856404.813503, 1488856404.813503, -1.654297, -0.142212, -0.399170, +2.710324, -36.724430, -83.141212 
1488856404.817238, 1488856404.817238, -1.654297, -0.142212, -0.399170, +2.710324, -36.724430, -83.141212 
1488856404.820980, 1488856404.820980, -1.069946, -0.317505, -0.147705, +2.084714, -29.644352, -74.581032 
1488856404.824782, 1488856404.824782, -1.069946, -0.317505, -0.147705, +2.084714, -29.644352, -74.581032 
1488856404.828527, 1488856404.828527, -1.069946, -0.317505, -0.147705, +2.084714, -29.644352, -74.581032 
1488856404.832279, 1488856404.832279, -1.069946, -0.317505, -0.147705, +12.536984, -26.760441, -56.423073 
1488856404.836382, 1488856404.836382, -1.069946, -0.317505, -0.147705, +12.536984, -26.760441, -56.423073 
1488856404.840334, 1488856404.840334, -0.960327, -0.641357, -0.374268, +12.536984, -26.760441, -40.798073 
1488856404.844230, 1488856404.844230, -0.960327, -0.641357, -0.374268, +29.046993, -25.249821, -38.371925 
1488856404.847978, 1488856404.847978, -0.960327, -0.641357, -0.374268, +29.046993, -25.249821, -38.371925 
1488856404.851723, 1488856404.851723, -0.960327, -0.641357, -0.374268, +29.046993, -25.249821, -22.395973 
1488856404.855597, 1488856404.855597, -0.960327, -0.641357, -0.374268, +49.768429, -21.892887, -22.395973 
1488856404.859514, 1488856404.859514, -0.960327, -0.314209, -0.478271, +49.768429, -21.892887, -22.395973 
1488856404.863677, 1488856404.863677, -1.018799, -0.314209, -0.478271, +65.683350, -18.032413, -7.655984 
1488856404.867572, 1488856404.867572, -1.018799, -0.314209, -0.478271, +65.683350, -18.032413, -7.655984 
1488856404.871677, 1488856404.871677, -1.018799, -0.314209, -0.478271, +65.683350, -18.032413, -7.655984 
1488856404.875519, 1488856404.875519, -1.018799, -0.314209, -0.478271, +71.222290, -15.636784, +0.385398 
1488856404.879260, 1488856404.879260, -1.018799, -0.055786, -0.236328, +71.222290, -15.636784, +0.385398 
1488856404.883027, 1488856404.883027, -1.251953, -0.055786, -0.236328, +71.222290, -15.636784, +0.385398 
1488856404.886767, 1488856404.886767, -1.251953, -0.055786, -0.236328, +67.605957, -15.926701, -0.072366 
1488856404.890508, 1488856404.890508, -1.251953, -0.055786, -0.236328, +67.605957, -15.926701, -0.072366 
1488856404.894262, 1488856404.894262, -1.251953, -0.055786, -0.236328, +67.605957, -15.926701, -0.072366 
1488856404.898006, 1488856404.898006, -1.251953, -0.055786, -0.236328, +56.741695, -17.422062, -2.544290 
1488856404.901749, 1488856404.901749, -1.125244, +0.128540, -0.379517, +56.741695, -17.422062, -2.544290 
1488856404.905500, 1488856404.905500, -1.125244, +0.128540, -0.379517, +56.741695, -17.422062, -2.544290 
1488856404.909246, 1488856404.909246, -1.125244, +0.128540, -0.379517, +44.534664, -17.452579, -2.284890 
1488856404.913118, 1488856404.913118, -1.125244, +0.128540, -0.379517, +44.534664, -17.452579, -2.284890 
1488856404.916873, 1488856404.916873, -1.125244, +0.128540, -0.379517, +44.534664, -17.452579, -1.445657 
1488856404.920610, 1488856404.920610, -1.099731, -0.279541, -0.389771, +42.444210, -18.719059, -1.445657 
1488856404.924376, 1488856404.924376, -1.099731, -0.279541, -0.389771, +42.444210, -18.719059, -1.445657 
1488856404.928116, 1488856404.928116, -1.099731, -0.279541, -0.389771, +42.444210, -18.719059, -2.132302 
1488856404.931853, 1488856404.931853, -1.099731, -0.279541, -0.389771, +46.274166, -22.426945, -2.132302 
1488856404.935604, 1488856404.935604, -1.099731, -0.279541, -0.389771, +46.274166, -22.426945, -2.132302 
1488856404.939337, 1488856404.939337, -0.974609, -0.043213, -0.590088, +54.086666, -27.614933, -2.147561 
1488856404.943075, 1488856404.943075, -0.974609, -0.043213, -0.590088, +53.171139, -27.614933, -2.147561 
1488856404.946834, 1488856404.946834, -0.974609, -0.043213, -0.590088, +53.171139, -27.614933, -2.147561 
1488856404.950589, 1488856404.950589, -0.974609, -0.043213, -0.590088, +57.062130, -27.752262, -0.957376 
1488856404.954416, 1488856404.954416, -0.974609, -0.043213, -0.590088, +57.062130, -27.752262, -0.957376 
1488856404.958363, 1488856404.958363, -0.974609, -0.136963, -0.382202, +57.062130, -27.752262, -0.957376 
1488856404.962310, 1488856404.962310, -1.077393, -0.148682, -0.382202, +56.726437, -26.958805, -3.917581 
1488856404.966273, 1488856404.966273, -1.077393, -0.148682, -0.382202, +56.726437, -26.958805, -3.917581 
1488856404.970030, 1488856404.970030, -1.077393, -0.148682, -0.382202, +56.726437, -26.958805, -3.917581 
1488856404.973984, 1488856404.973984, -1.077393, -0.148682, -0.382202, +52.576046, -33.428532, -10.646707 
1488856404.977881, 1488856404.977881, -1.077393, -0.148682, -0.466064, +52.576046, -33.428532, -10.646707 
1488856404.982059, 1488856404.982059, -0.898315, +0.056519, -0.466064, +52.576046, -33.428532, -10.646707 
1488856404.985923, 1488856404.985923, -0.898315, +0.056519, -0.466064, +49.631100, -35.930973, -13.286477 
1488856404.989677, 1488856404.989677, -0.898315, +0.056519, -0.466064, +49.631100, -35.930973, -13.286477 
1488856404.993467, 1488856404.993467, -0.898315, +0.056519, -0.466064, +49.631100, -35.930973, -15.636331 
1488856404.997215, 1488856404.997215, -0.898315, +0.056519, -0.466064, +52.759151, -37.105900, -15.636331 
1488856405.000962, 1488856405.000962, -0.987305, -0.081299, -0.321777, +52.759151, -37.105900, -15.636331 
1488856405.004715, 1488856405.004715, -0.987305, -0.081299, -0.321777, +52.759151, -38.662296, -21.739845 
1488856405.008466, 1488856405.008466, -0.987305, -0.081299, -0.321777, +54.971676, -38.662296, -21.739845 
1488856405.012209, 1488856405.012209, -0.987305, -0.081299, -0.321777, +54.971676, -38.662296, -21.739845 
1488856405.016006, 1488856405.016006, -0.987305, -0.081299, -0.321777, +53.903561, -43.896061, -28.072243 
1488856405.019749, 1488856405.019749, -1.056152, +0.062256, -0.353882, +53.903561, -43.896061, -28.072243 
1488856405.023613, 1488856405.023613, -1.056152, +0.062256, -0.353882, +53.903561, -43.896061, -28.072243 
1488856405.027359, 1488856405.027359, -1.056152, +0.062256, -0.353882, +52.133541, -46.932560, -32.985573 
1488856405.031110, 1488856405.031110, -1.056152, +0.062256, -0.353882, +52.133541, -46.932560, -32.985573 
1488856405.034985, 1488856405.034985, -1.056152, +0.062256, -0.353882, +52.133541, -46.932560, -32.985573 
1488856405.038724, 1488856405.038724, -1.179688, -0.017090, -0.259399, +53.812008, -48.946720, -37.914162 
1488856405.042469, 1488856405.042469, -1.179688, -0.017090, -0.259399, +53.812008, -48.946720, -37.914162 
1488856405.046221, 1488856405.046221, -1.179688, -0.017090, -0.259399, +53.812008, -48.946720, -37.914162 
1488856405.049967, 1488856405.049967, -1.179688, -0.017090, -0.259399, +53.033810, -53.066593, -42.568092 
1488856405.053752, 1488856405.053752, -1.179688, -0.017090, -0.259399, +53.033810, -53.066593, -42.568092 
1488856405.057706, 1488856405.057706, -1.179688, +0.107910, -0.305786, +53.033810, -53.066593, -42.568092 
1488856405.061653, 1488856405.061653, -1.204712, +0.107300, -0.305786, +51.248531, -58.483463, -47.603493 
1488856405.065610, 1488856405.065610, -1.204712, +0.107300, -0.305786, +51.248531, -58.483463, -47.603493 
1488856405.069555, 1488856405.069555, -1.204712, +0.107300, -0.305786, +51.248531, -58.483463, -54.576759 
1488856405.073404, 1488856405.073404, -1.204712, +0.107300, -0.305786, +48.562984, -62.481266, -54.576759 
1488856405.077301, 1488856405.077301, -1.204712, +0.107300, -0.317871, +48.562984, -62.481266, -54.576759 
1488856405.081698, 1488856405.081698, -1.276733, +0.089355, -0.317871, +45.694332, -66.662170, -63.747292 
1488856405.085648, 1488856405.085648, -1.276733, +0.089355, -0.317871, +45.694332, -66.662170, -63.747292 
1488856405.089395, 1488856405.089395, -1.276733, +0.089355, -0.317871, +45.694332, -66.662170, -63.747292 
1488856405.093135, 1488856405.093135, -1.276733, +0.089355, -0.317871, +43.146114, -71.804382, -72.551613 
1488856405.096881, 1488856405.096881, -1.276733, +0.089355, -0.474121, +43.146114, -71.804382, -72.551613 
1488856405.100626, 1488856405.100626, -1.447510, +0.325073, -0.494263, +43.146114, -71.804382, -72.551613 
1488856405.104426, 1488856405.104426, -1.447510, +0.325073, -0.494263, +35.379391, -79.571106, -83.064919 
1488856405.108167, 1488856405.108167, -1.447510, +0.325073, -0.494263, +35.379391, -79.571106, -83.064919 
1488856405.111912, 1488856405.111912, -1.447510, +0.325073, -0.494263, +35.379391, -79.571106, -83.064919 
1488856405.115669, 1488856405.115669, -1.447510, +0.325073, -0.494263, +30.328732, -85.827209, -93.273048 
1488856405.119409, 1488856405.119409, -1.560669, +0.372192, -0.650879, +30.328732, -85.827209, -93.273048 
1488856405.123323, 1488856405.123323, -1.560669, +0.372192, -0.650879, +30.328732, -85.827209, -93.273048 
1488856405.127080, 1488856405.127080, -1.560669, +0.372192, -0.650879, +32.724361, -90.832092, -101.467018 
1488856405.130942, 1488856405.130942, -1.560669, +0.372192, -0.650879, +32.724361, -90.832092, -101.467018 
1488856405.134780, 1488856405.134780, -1.560669, +0.372192, -0.650879, +32.724361, -90.832092, -106.563454 
1488856405.138530, 1488856405.138530, -1.860840, +0.244385, -0.624756, +39.728146, -95.180847, -106.563454 
1488856405.142279, 1488856405.142279, -1.860840, +0.244385, -0.624756, +39.728146, -95.180847, -106.563454 
1488856405.146198, 1488856405.146198, -1.860840, +0.244385, -0.624756, +55.353146, -99.895813, -111.537819 
1488856405.150145, 1488856405.150145, -1.860840, +0.244385, -0.624756, +55.566769, -99.895813, -111.537819 
1488856405.154103, 1488856405.154103, -1.860840, +0.244385, -0.624756, +55.566769, -99.895813, -111.537819 
1488856405.158045, 1488856405.158045, -1.997803, +0.595459, -0.789551, +74.365601, -106.640198, -115.062599 
1488856405.161991, 1488856405.161991, -1.997803, +0.595459, -0.789551, +74.365601, -106.640198, -115.062599 
1488856405.165949, 1488856405.165949, -1.997803, +0.595459, -0.789551, +74.365601, -106.640198, -115.062599 
