Calculating the offsets...
timestamp_before, timestamp_after, accel_x, accel_y, accel_z, gyro_x, gyro_y, gyro_z
1488855057.425838, 1488855057.425838, -0.785889, +0.230591, -0.308350, +7.135977, -77.280174, +55.472195 
1488855057.438759, 1488855057.438759, -0.785889, +0.230591, -0.308350, +7.135977, -77.280174, +55.472195 
1488855057.442664, 1488855057.442664, -0.785889, +0.230591, -0.308350, +7.135977, -77.280174, +55.472195 
1488855057.446539, 1488855057.446539, -0.785889, +0.230591, -0.308350, -19.612680, -77.264915, +49.353420 
1488855057.450426, 1488855057.450426, -1.007568, +0.037109, -0.372681, -19.612680, -77.264915, +49.353420 
1488855057.454386, 1488855057.454386, -1.007568, +0.037109, -0.372681, -19.612680, -77.264915, +49.353420 
1488855057.458338, 1488855057.458338, -1.007568, +0.037109, -0.372681, -0.829111, -64.844261, +53.198635 
1488855057.462277, 1488855057.462277, -1.007568, +0.037109, -0.372681, -0.829111, -64.844261, +53.198635 
1488855057.466070, 1488855057.466070, -1.007568, +0.037109, -0.372681, -0.829111, -53.125515, +51.993191 
1488855057.469809, 1488855057.469809, -1.196289, +0.224731, -0.118652, +17.862906, -53.888454, +51.993191 
1488855057.473644, 1488855057.473644, -1.196289, +0.224731, -0.118652, +17.862906, -53.888454, +51.993191 
1488855057.477399, 1488855057.477399, -1.196289, +0.224731, -0.118652, +16.886343, -51.111355, +48.834621 
1488855057.481254, 1488855057.481254, -1.196289, +0.224731, -0.118652, +16.886343, -51.111355, +48.834621 
1488855057.485278, 1488855057.485278, -1.196289, +0.224731, -0.118652, +16.886343, -51.111355, +48.834621 
1488855057.489031, 1488855057.489031, -1.196289, +0.226562, -0.224121, +10.386099, -45.389309, +41.220486 
1488855057.492775, 1488855057.492775, -1.146606, +0.226562, -0.224121, +10.386099, -45.389309, +41.220486 
1488855057.496827, 1488855057.496827, -1.146606, +0.226562, -0.224121, +10.386099, -45.389309, +41.220486 
1488855057.501763, 1488855057.501763, -1.146606, +0.226562, -0.224121, +2.497305, -39.652004, +33.606350 
1488855057.505587, 1488855057.505587, -1.146606, +0.226562, -0.224121, +2.497305, -39.652004, +33.606350 
1488855057.509326, 1488855057.509326, -1.126831, +0.145264, -0.192505, +2.497305, -39.652004, +28.570950 
1488855057.513058, 1488855057.513058, -1.126831, +0.145264, -0.192505, +0.162710, -36.081448, +28.570950 
1488855057.516802, 1488855057.516802, -1.126831, +0.145264, -0.192505, +0.162710, -36.081448, +28.570950 
1488855057.520546, 1488855057.520546, -1.126831, +0.145264, -0.192505, +0.162710, -32.175198, +25.259792 
1488855057.524292, 1488855057.524292, -1.126831, +0.145264, -0.192505, +2.588858, -32.861843, +25.259792 
1488855057.528027, 1488855057.528027, -1.126831, +0.145264, -0.265381, +2.588858, -32.861843, +25.259792 
1488855057.531863, 1488855057.531863, -1.165039, +0.060181, -0.265381, +11.011709, -28.268946, +25.503933 
1488855057.535791, 1488855057.535791, -1.165039, +0.060181, -0.265381, +11.011709, -28.268946, +25.503933 
1488855057.539538, 1488855057.539538, -1.165039, +0.060181, -0.265381, +11.011709, -28.268946, +25.503933 
1488855057.543423, 1488855057.543423, -1.165039, +0.060181, -0.265381, +23.645987, -22.699488, +26.495754 
1488855057.547172, 1488855057.547172, -1.165039, +0.060181, -0.265381, +23.645987, -22.699488, +26.495754 
1488855057.550924, 1488855057.550924, -1.184937, +0.193604, -0.229980, +23.645987, -22.699488, +26.495754 
1488855057.554843, 1488855057.554843, -1.184937, +0.193604, -0.229980, +25.675406, -19.647730, +25.717556 
1488855057.558766, 1488855057.558766, -1.184937, +0.193604, -0.229980, +25.675406, -19.647730, +25.717556 
1488855057.562689, 1488855057.562689, -1.184937, +0.193604, -0.229980, +25.675406, -19.647730, +25.717556 
1488855057.566608, 1488855057.566608, -1.184937, +0.193604, -0.229980, +22.593130, -17.770899, +23.138821 
1488855057.570533, 1488855057.570533, -1.073730, +0.306885, -0.324097, +22.593130, -17.770899, +23.138821 
1488855057.574502, 1488855057.574502, -1.073730, +0.306885, -0.324097, +22.593130, -17.770899, +17.676174 
1488855057.578426, 1488855057.578426, -1.073730, +0.306885, -0.324097, +15.864004, -17.572535, +17.676174 
1488855057.582515, 1488855057.582515, -1.073730, +0.306885, -0.324097, +15.864004, -17.572535, +17.676174 
1488855057.586490, 1488855057.586490, -1.073730, +0.306885, -0.324097, +10.141958, -18.381250, +13.129055 
1488855057.590416, 1488855057.590416, -1.092773, +0.286743, -0.285400, +10.141958, -18.381250, +13.129055 
1488855057.594354, 1488855057.594354, -1.092773, +0.286743, -0.285400, +10.141958, -18.381250, +13.129055 
1488855057.598271, 1488855057.598271, -1.092773, +0.286743, -0.285400, +3.580679, -21.616114, +9.024441 
1488855057.602191, 1488855057.602191, -1.092773, +0.286743, -0.285400, +3.580679, -21.616114, +9.024441 
1488855057.606124, 1488855057.606124, -1.092773, +0.286743, -0.285400, +3.580679, -21.616114, +9.024441 
1488855057.610131, 1488855057.610131, -1.083862, +0.062622, -0.354004, -2.187143, -23.340357, +7.910549 
1488855057.614068, 1488855057.614068, -1.083862, +0.062622, -0.354004, -2.187143, -23.340357, +7.910549 
1488855057.617985, 1488855057.617985, -1.083862, +0.062622, -0.354004, -2.187143, -23.340357, +11.832058 
1488855057.621902, 1488855057.621902, -1.083862, +0.062622, -0.354004, -2.232920, -26.331079, +11.832058 
1488855057.625742, 1488855057.625742, -1.083862, +0.062622, -0.354004, -2.232920, -26.331079, +11.832058 
1488855057.629589, 1488855057.629589, -1.077759, +0.156250, -0.306641, -2.232920, -30.862940, +16.165554 
1488855057.633354, 1488855057.633354, -1.077759, +0.156250, -0.306641, -2.370249, -30.862940, +16.165554 
1488855057.637307, 1488855057.637307, -1.077759, +0.156250, -0.306641, -2.370249, -30.862940, +16.165554 
1488855057.641250, 1488855057.641250, -1.077759, +0.156250, -0.306641, -5.696665, -35.883083, +19.385159 
1488855057.645102, 1488855057.645102, -1.077759, +0.156250, -0.306641, -5.696665, -35.883083, +19.385159 
1488855057.648850, 1488855057.648850, -1.012329, +0.129639, -0.386597, -5.696665, -35.883083, +19.385159 
1488855057.652596, 1488855057.652596, -1.012329, +0.129639, -0.386597, -7.268320, -39.087429, +21.414577 
1488855057.656488, 1488855057.656488, -1.012329, +0.129639, -0.386597, -7.268320, -39.087429, +21.414577 
1488855057.660233, 1488855057.660233, -1.012329, +0.129639, -0.386597, -7.268320, -39.087429, +21.414577 
1488855057.664199, 1488855057.664199, -1.012329, +0.129639, -0.386597, -10.350595, -41.315212, +23.474514 
1488855057.668147, 1488855057.668147, -1.089966, +0.234741, -0.251587, -10.350595, -41.315212, +23.474514 
1488855057.672098, 1488855057.672098, -1.089966, +0.234741, -0.251587, -10.350595, -41.315212, +23.474514 
1488855057.675938, 1488855057.675938, -1.089966, +0.234741, -0.251587, -15.340219, -43.359890, +24.054348 
1488855057.679691, 1488855057.679691, -1.089966, +0.234741, -0.251587, -15.340219, -43.359890, +24.054348 
1488855057.683505, 1488855057.683505, -1.089966, +0.234741, -0.251587, -15.340219, -43.359890, +22.986233 
1488855057.687429, 1488855057.687429, -1.089966, +0.260376, -0.238403, -19.734751, -43.420925, +22.986233 
1488855057.691357, 1488855057.691357, -1.093628, +0.260376, -0.238403, -19.734751, -43.420925, +22.986233 
1488855057.695290, 1488855057.695290, -1.093628, +0.260376, -0.238403, -20.223032, -41.162624, +22.375881 
1488855057.699218, 1488855057.699218, -1.093628, +0.260376, -0.238403, -20.223032, -41.162624, +22.375881 
1488855057.703136, 1488855057.703136, -1.093628, +0.260376, -0.238403, -20.223032, -41.162624, +22.375881 
1488855057.706927, 1488855057.706927, -1.093628, +0.197876, -0.165649, -20.940195, -40.613308, +21.475613 
1488855057.710686, 1488855057.710686, -1.098999, +0.206909, -0.165649, -20.940195, -40.613308, +21.475613 
1488855057.714644, 1488855057.714644, -1.098999, +0.206909, -0.165649, -20.940195, -40.613308, +21.475613 
1488855057.718625, 1488855057.718625, -1.098999, +0.206909, -0.165649, -20.100962, -39.529934, +20.071804 
1488855057.722904, 1488855057.722904, -1.098999, +0.206909, -0.165649, -20.100962, -39.529934, +20.071804 
1488855057.726700, 1488855057.726700, -1.098999, +0.238159, -0.139282, -20.100962, -39.529934, +20.071804 
1488855057.730673, 1488855057.730673, -1.102051, +0.238403, -0.139282, -16.637217, -37.820950, +20.376980 
1488855057.734531, 1488855057.734531, -1.102051, +0.238403, -0.139282, -16.637217, -37.820950, +20.376980 
1488855057.738474, 1488855057.738474, -1.102051, +0.238403, -0.139282, -16.637217, -37.668362, +20.438015 
1488855057.742421, 1488855057.742421, -1.102051, +0.238403, -0.139282, -15.431772, -37.668362, +20.438015 
1488855057.746375, 1488855057.746375, -1.102051, +0.238403, -0.120972, -15.431772, -37.668362, +20.438015 
1488855057.750315, 1488855057.750315, -1.082520, +0.225708, -0.120972, -15.035044, -37.866726, +20.941555 
1488855057.754218, 1488855057.754218, -1.082520, +0.225708, -0.120972, -15.035044, -37.866726, +20.941555 
1488855057.757969, 1488855057.757969, -1.082520, +0.225708, -0.120972, -15.035044, -37.866726, +20.941555 
1488855057.761715, 1488855057.761715, -1.082520, +0.225708, -0.120972, -14.287363, -38.950100, +22.177517 
1488855057.765538, 1488855057.765538, -1.082520, +0.225708, -0.120972, -14.287363, -38.950100, +22.177517 
1488855057.769289, 1488855057.769289, -1.064819, +0.191040, -0.207764, -14.287363, -38.950100, +22.177517 
1488855057.773116, 1488855057.773116, -1.064819, +0.191040, -0.207764, -14.272104, -40.949001, +23.718655 
1488855057.776861, 1488855057.776861, -1.064819, +0.191040, -0.207764, -14.272104, -40.949001, +23.718655 
1488855057.780611, 1488855057.780611, -1.064819, +0.191040, -0.207764, -14.272104, -40.949001, +23.718655 
1488855057.784484, 1488855057.784484, -1.064819, +0.191040, -0.207764, -12.639414, -42.596951, +26.022732 
1488855057.788433, 1488855057.788433, -1.133301, +0.264771, -0.217285, -12.639414, -42.596951, +26.022732 
1488855057.792377, 1488855057.792377, -1.133301, +0.264771, -0.217285, -12.639414, -42.596951, +26.678860 
1488855057.796467, 1488855057.796467, -1.133301, +0.264771, -0.217285, -14.211069, -44.275417, +26.678860 
1488855057.800227, 1488855057.800227, -1.133301, +0.264771, -0.217285, -14.211069, -44.275417, +26.678860 
1488855057.804194, 1488855057.804194, -1.133301, +0.264771, -0.217285, -16.164194, -45.526638, +26.724636 
1488855057.808087, 1488855057.808087, -1.173950, +0.270996, -0.277466, -16.164194, -45.526638, +26.724636 
1488855057.812278, 1488855057.812278, -1.173950, +0.270996, -0.277466, -16.164194, -45.526638, +26.724636 
1488855057.816147, 1488855057.816147, -1.173950, +0.270996, -0.277466, -17.583261, -46.350613, +27.212917 
1488855057.819895, 1488855057.819895, -1.173950, +0.270996, -0.277466, -17.583261, -46.350613, +27.212917 
1488855057.823689, 1488855057.823689, -1.173950, +0.270996, -0.277466, -17.583261, -46.350613, +27.212917 
1488855057.827441, 1488855057.827441, -1.173096, +0.256958, -0.288940, -20.192514, -50.439968, +28.509914 
1488855057.831315, 1488855057.831315, -1.173096, +0.256958, -0.288940, -20.192514, -50.439968, +28.509914 
1488855057.835066, 1488855057.835066, -1.173096, +0.256958, -0.288940, -20.192514, -50.439968, +28.509914 
1488855057.838804, 1488855057.838804, -1.173096, +0.256958, -0.288940, -23.183237, -55.032864, +29.349148 
1488855057.842581, 1488855057.842581, -1.173096, +0.256958, -0.288940, -23.183237, -55.032864, +29.349148 
1488855057.846380, 1488855057.846380, -1.188110, +0.264771, -0.295776, -23.183237, -55.032864, +29.349148 
1488855057.850121, 1488855057.850121, -1.188110, +0.264771, -0.295776, -25.029551, -60.983791, +32.538235 
1488855057.854008, 1488855057.854008, -1.188110, +0.264771, -0.295776, -25.029551, -60.983791, +32.538235 
1488855057.857747, 1488855057.857747, -1.188110, +0.264771, -0.295776, -25.029551, -60.983791, +35.467922 
1488855057.861500, 1488855057.861500, -1.188110, +0.264771, -0.295776, -27.043711, -67.529808, +35.467922 
1488855057.865389, 1488855057.865389, -1.188110, +0.264771, -0.283325, -27.043711, -67.529808, +35.467922 
1488855057.869131, 1488855057.869131, -1.293091, +0.197510, -0.283325, -27.043711, -75.418602, +38.794338 
1488855057.872870, 1488855057.872870, -1.293091, +0.197510, -0.283325, -26.265512, -75.418602, +38.794338 
1488855057.876622, 1488855057.876622, -1.293091, +0.197510, -0.283325, -26.265512, -75.418602, +38.794338 
1488855057.880472, 1488855057.880472, -1.293091, +0.197510, -0.283325, -26.173960, -80.850731, +42.639553 
1488855057.884337, 1488855057.884337, -1.293091, +0.197510, -0.283325, -26.173960, -80.850731, +42.639553 
1488855057.888293, 1488855057.888293, -1.372559, +0.336914, -0.258301, -26.173960, -80.850731, +42.639553 
1488855057.892238, 1488855057.892238, -1.372559, +0.336914, -0.258301, -26.402842, -84.329735, +46.057522 
1488855057.896200, 1488855057.896200, -1.372559, +0.336914, -0.258301, -26.402842, -84.329735, +46.057522 
1488855057.900035, 1488855057.900035, -1.372559, +0.336914, -0.258301, -26.402842, -84.329735, +46.057522 
1488855057.904014, 1488855057.904014, -1.372559, +0.336914, -0.258301, -31.087290, -88.403831, +48.376858 
1488855057.907897, 1488855057.907897, -1.424683, +0.408325, -0.203979, -31.087290, -88.403831, +48.376858 
1488855057.912004, 1488855057.912004, -1.424683, +0.408325, -0.203979, -31.087290, -88.403831, +50.009548 
1488855057.915819, 1488855057.915819, -1.424683, +0.408325, -0.203979, -38.808235, -92.096458, +50.009548 
1488855057.919554, 1488855057.919554, -1.424683, +0.408325, -0.203979, -38.808235, -92.096458, +50.009548 
1488855057.923315, 1488855057.923315, -1.424683, +0.408325, -0.203979, -38.808235, -96.002708, +49.826443 
1488855057.927055, 1488855057.927055, -1.446533, +0.296509, -0.196899, -49.184212, -96.765648, +49.826443 
1488855057.930830, 1488855057.930830, -1.446533, +0.296509, -0.196899, -49.184212, -96.765648, +49.826443 
1488855057.934620, 1488855057.934620, -1.446533, +0.296509, -0.196899, -53.899178, -103.830467, +52.618801 
1488855057.938362, 1488855057.938362, -1.446533, +0.296509, -0.196899, -53.899178, -103.830467, +52.618801 
1488855057.942110, 1488855057.942110, -1.446533, +0.296509, -0.196899, -53.899178, -103.830467, +52.618801 
1488855057.945858, 1488855057.945858, -1.585449, +0.335571, -0.450684, -52.510628, -111.063133, +59.012234 
1488855057.949605, 1488855057.949605, -1.585449, +0.335571, -0.450684, -52.510628, -111.063133, +59.012234 
1488855057.953429, 1488855057.953429, -1.585449, +0.335571, -0.450684, -52.510628, -111.063133, +59.012234 
1488855057.957190, 1488855057.957190, -1.585449, +0.335571, -0.450684, -57.118782, -116.281639, +65.695580 
1488855057.960948, 1488855057.960948, -1.585449, +0.335571, -0.450684, -57.118782, -116.281639, +65.695580 
1488855057.964874, 1488855057.964874, -1.585449, +0.304321, -0.535034, -57.118782, -116.281639, +65.695580 
1488855057.968620, 1488855057.968620, -1.661865, +0.312012, -0.535034, -65.999397, -121.332298, +74.225243 
1488855057.972399, 1488855057.972399, -1.661865, +0.312012, -0.535034, -65.999397, -121.332298, +74.225243 
1488855057.976180, 1488855057.976180, -1.661865, +0.312012, -0.535034, -65.999397, -121.332298, +74.225243 
1488855057.979929, 1488855057.979929, -1.661865, +0.312012, -0.535034, -71.751961, -127.542625, +82.861717 
1488855057.983718, 1488855057.983718, -1.661865, +0.312012, -0.535034, -71.751961, -127.542625, +82.861717 
1488855057.987662, 1488855057.987662, -1.915039, +0.253174, -0.667847, -71.751961, -127.542625, +82.861717 
1488855057.991596, 1488855057.991596, -1.915039, +0.253174, -0.667847, -79.747566, -134.119171, +91.040428 
1488855057.995552, 1488855057.995552, -1.915039, +0.253174, -0.667847, -79.747566, -134.119171, +91.040428 
1488855057.999493, 1488855057.999493, -1.915039, +0.253174, -0.667847, -79.747566, -139.413971, +96.838768 
1488855058.003479, 1488855058.003479, -1.915039, +0.253174, -0.667847, -90.642342, -139.413971, +96.838768 
1488855058.007431, 1488855058.007431, -2.249756, +0.118530, -0.802734, -90.642342, -139.413971, +96.838768 
1488855058.011381, 1488855058.011381, -2.249756, +0.118530, -0.802734, -108.113655, -145.166534, +100.119408 
1488855058.015228, 1488855058.015228, -2.249756, +0.118530, -0.802734, -108.113655, -145.166534, +100.119408 
1488855058.019027, 1488855058.019027, -2.249756, +0.118530, -0.802734, -108.113655, -145.166534, +100.119408 
1488855058.023396, 1488855058.023396, -2.249756, +0.118530, -0.802734, -132.024185, -150.888580, +99.905785 
1488855058.027450, 1488855058.027450, -2.364136, +0.122070, -1.030029, -132.024185, -150.888580, +99.905785 
1488855058.031396, 1488855058.031396, -2.364136, +0.122070, -1.030029, -132.024185, -150.888580, +95.999535 
1488855058.035353, 1488855058.035353, -2.364136, +0.122070, -1.030029, -160.588638, -153.131622, +93.451317 
1488855058.039296, 1488855058.039296, -2.364136, +0.122070, -1.030029, -160.588638, -153.131622, +93.451317 
1488855058.043281, 1488855058.043281, -2.364136, +0.122070, -1.030029, -191.838638, -149.728912, +80.344017 
1488855058.047232, 1488855058.047232, -1.935303, -0.533813, -1.034668, -188.786880, -149.728912, +80.344017 
1488855058.051180, 1488855058.051180, -1.935303, -0.533813, -1.034668, -188.786880, -149.728912, +80.344017 
1488855058.055036, 1488855058.055036, -1.935303, -0.533813, -1.034668, -195.424454, -136.881012, +68.411644 
1488855058.058786, 1488855058.058786, -1.935303, -0.533813, -1.034668, -195.424454, -136.881012, +68.411644 
1488855058.062530, 1488855058.062530, -1.935303, -0.533813, -1.034668, -195.424454, -136.881012, +68.411644 
1488855058.066334, 1488855058.066334, -1.251221, -0.218750, -0.026855, -202.168839, -123.056541, +59.363186 
1488855058.070084, 1488855058.070084, -1.251221, -0.218750, -0.026855, -202.168839, -123.056541, +59.363186 
1488855058.074006, 1488855058.074006, -1.251221, -0.218750, -0.026855, -202.168839, -123.056541, +59.363186 
1488855058.077755, 1488855058.077755, -1.251221, -0.218750, -0.026855, -211.186783, -105.325829, +46.896755 
1488855058.081502, 1488855058.081502, -1.251221, -0.218750, -0.026855, -211.186783, -105.325829, +46.896755 
1488855058.085447, 1488855058.085447, -0.741333, +0.692383, +0.499634, -211.186783, -105.325829, +46.896755 
1488855058.089397, 1488855058.089397, -0.741333, +0.692383, +0.499634, -205.724136, -91.760765, +43.875515 
1488855058.093343, 1488855058.093343, -0.741333, +0.692383, +0.499634, -205.724136, -91.760765, +43.875515 
1488855058.097086, 1488855058.097086, -0.741333, +0.692383, +0.499634, -205.724136, -91.760765, +47.629177 
1488855058.100834, 1488855058.100834, -0.741333, +0.692383, +0.499634, -162.511246, -72.885643, +47.629177 
1488855058.104704, 1488855058.104704, -0.554810, +0.649170, +0.101562, -162.511246, -72.885643, +47.629177 
1488855058.108649, 1488855058.108649, -0.554810, +0.649170, +0.101562, -103.917488, -45.145168, +46.423733 
1488855058.112590, 1488855058.112590, -0.554810, +0.649170, +0.101562, -106.358894, -45.145168, +46.423733 
1488855058.116545, 1488855058.116545, -0.554810, +0.649170, +0.101562, -106.358894, -45.145168, +46.423733 
1488855058.120492, 1488855058.120492, -0.554810, +0.649170, +0.101562, -81.654915, -19.647730, +24.908840 
1488855058.124481, 1488855058.124481, +0.755981, +0.190063, +0.289673, -81.654915, -19.647730, +24.908840 
1488855058.128421, 1488855058.128421, +0.755981, +0.190063, +0.289673, -81.654915, -19.647730, +24.908840 
1488855058.132363, 1488855058.132363, +0.755981, +0.190063, +0.289673, -61.940559, +11.754858, -0.161351 
1488855058.136322, 1488855058.136322, +0.755981, +0.190063, +0.289673, -61.940559, +11.754858, -0.161351 
1488855058.140347, 1488855058.140347, +0.755981, +0.190063, +0.289673, -61.940559, +11.754858, -27.505100 
1488855058.144386, 1488855058.144386, +0.446045, -0.766113, -0.349365, -54.570564, +48.086033, -28.207005 
1488855058.148135, 1488855058.148135, +0.446045, -0.766113, -0.349365, -54.570564, +48.086033, -28.207005 
1488855058.151879, 1488855058.151879, +0.446045, -0.766113, -0.349365, -54.570564, +87.148537, -46.136082 
1488855058.155775, 1488855058.155775, +0.446045, -0.766113, -0.349365, -22.755991, +87.697853, -46.136082 
1488855058.159721, 1488855058.159721, +0.446045, -0.766113, -0.349365, -22.755991, +87.697853, -46.136082 
1488855058.163676, 1488855058.163676, -0.241455, -0.692749, -0.292358, +36.234489, +112.096657, -40.688694 
1488855058.167619, 1488855058.167619, -0.219482, -0.692749, -0.292358, +36.234489, +112.096657, -40.688694 
1488855058.171560, 1488855058.171560, -0.219482, -0.692749, -0.292358, +36.234489, +112.096657, -40.688694 
1488855058.175476, 1488855058.175476, -0.219482, -0.692749, -0.292358, +89.136711, +121.892799, -37.728489 
1488855058.179227, 1488855058.179227, -0.219482, -0.692749, -0.292358, +89.136711, +121.892799, -37.728489 
1488855058.183006, 1488855058.183006, -0.219482, -0.380249, -0.160034, +89.136711, +121.892799, -37.728489 
1488855058.186758, 1488855058.186758, -0.238770, -0.378174, -0.160034, +113.596550, +132.238251, -48.287571 
1488855058.190513, 1488855058.190513, -0.238770, -0.378174, -0.160034, +113.596550, +132.238251, -48.287571 
1488855058.194358, 1488855058.194358, -0.238770, -0.378174, -0.160034, +113.596550, +132.238251, -48.287571 
1488855058.198104, 1488855058.198104, -0.238770, -0.378174, -0.160034, +120.585075, +154.729706, -55.749119 
1488855058.201855, 1488855058.201855, -0.238770, -0.378174, -0.160034, +120.585075, +154.729706, -55.749119 
1488855058.205842, 1488855058.205842, -0.119873, +0.022095, -0.227905, +120.585075, +154.729706, -56.969822 
1488855058.209843, 1488855058.209843, -0.119873, +0.022095, -0.227905, +122.858635, +185.415131, -56.969822 
1488855058.213793, 1488855058.213793, -0.119873, +0.022095, -0.227905, +122.858635, +185.415131, -56.969822 
1488855058.217682, 1488855058.217682, -0.119873, +0.022095, -0.227905, +135.569199, +211.233002, -59.136570 
1488855058.221747, 1488855058.221747, -0.119873, +0.022095, -0.227905, +135.569199, +211.233002, -59.136570 
1488855058.225497, 1488855058.225497, -0.172729, +0.169434, -0.384033, +135.569199, +211.233002, -59.136570 
1488855058.229239, 1488855058.229239, -0.172729, +0.169434, -0.384033, +153.071030, +234.639984, -65.407936 
1488855058.233015, 1488855058.233015, -0.172729, +0.169434, -0.384033, +153.071030, +234.639984, -65.407936 
1488855058.236769, 1488855058.236769, -0.172729, +0.169434, -0.384033, +153.071030, +234.639984, -65.407936 
1488855058.240508, 1488855058.240508, -0.172729, +0.169434, -0.384033, +164.560898, +253.621918, -75.066750 
1488855058.244269, 1488855058.244269, -0.427612, +0.356567, -0.593994, +164.560898, +253.621918, -75.066750 
1488855058.248015, 1488855058.248015, -0.427612, +0.356567, -0.593994, +164.560898, +253.621918, -75.066750 
1488855058.251753, 1488855058.251753, -0.427612, +0.356567, -0.593994, +161.539658, +266.759735, -87.304298 
1488855058.255543, 1488855058.255543, -0.427612, +0.356567, -0.593994, +161.539658, +266.759735, -87.304298 
1488855058.259280, 1488855058.259280, -0.427612, +0.356567, -0.593994, +161.539658, +266.759735, -87.304298 
1488855058.263136, 1488855058.263136, -0.893433, +0.516846, -0.572754, +146.448715, +273.336273, -99.450294 
1488855058.266895, 1488855058.266895, -0.893433, +0.516846, -0.572754, +146.448715, +273.336273, -99.450294 
1488855058.270654, 1488855058.270654, -0.893433, +0.516846, -0.572754, +146.448715, +273.336273, -99.450294 
1488855058.274622, 1488855058.274622, -0.893433, +0.516846, -0.572754, +122.522942, +275.548798, -110.406105 
1488855058.278554, 1488855058.278554, -0.893433, +0.516846, -0.572754, +122.522942, +275.548798, -110.406105 
1488855058.282484, 1488855058.282484, -0.893433, +0.444214, -0.436646, +122.522942, +279.455048, -118.798439 
1488855058.286380, 1488855058.286380, -1.201416, +0.444214, -0.436646, +100.000969, +279.714447, -118.798439 
1488855058.290279, 1488855058.290279, -1.201416, +0.444214, -0.436646, +100.000969, +279.714447, -118.798439 
1488855058.294281, 1488855058.294281, -1.201416, +0.444214, -0.436646, +79.767815, +285.772186, -127.862160 
1488855058.298037, 1488855058.298037, -1.201416, +0.444214, -0.436646, +79.767815, +285.772186, -127.862160 
1488855058.301782, 1488855058.301782, -1.201416, +0.444214, -0.294312, +79.767815, +285.772186, -127.862160 
1488855058.305714, 1488855058.305714, -1.411133, +0.320435, -0.294312, +64.997307, +292.531830, -137.429413 
1488855058.309671, 1488855058.309671, -1.411133, +0.320435, -0.294312, +64.997307, +292.531830, -137.429413 
1488855058.313666, 1488855058.313666, -1.411133, +0.320435, -0.294312, +64.997307, +292.531830, -137.429413 
1488855058.317723, 1488855058.317723, -1.411133, +0.320435, -0.294312, +52.408806, +297.017914, -147.820648 
1488855058.321666, 1488855058.321666, -1.411133, +0.320435, -0.102661, +52.408806, +297.017914, -147.820648 
1488855058.325627, 1488855058.325627, -1.753662, +0.181152, -0.102661, +52.408806, +297.017914, -157.509979 
1488855058.329608, 1488855058.329608, -1.753662, +0.181152, -0.102661, +38.141838, +298.223358, -157.509979 
1488855058.333631, 1488855058.333631, -1.753662, +0.181152, -0.102661, +38.141838, +298.223358, -157.509979 
1488855058.337659, 1488855058.337659, -1.753662, +0.181152, -0.102661, +26.407827, +296.789032, -163.354095 
1488855058.341606, 1488855058.341606, -1.753662, +0.181152, +0.225464, +26.407827, +296.789032, -163.354095 
1488855058.345455, 1488855058.345455, -2.296143, +0.330078, +0.225464, +26.407827, +296.789032, -163.354095 
1488855058.349207, 1488855058.349207, -2.296143, +0.330078, +0.225464, +18.534292, +291.616302, -163.247284 
1488855058.353006, 1488855058.353006, -2.296143, +0.330078, +0.225464, +18.534292, +291.616302, -163.247284 
1488855058.356948, 1488855058.356948, -2.296143, +0.330078, +0.225464, +18.534292, +291.616302, -163.247284 
1488855058.360901, 1488855058.360901, -2.296143, +0.330078, +0.225464, +5.869497, +272.603851, -155.587372 
1488855058.364807, 1488855058.364807, -3.141113, +1.084717, +0.814087, +5.869497, +272.603851, -155.587372 
1488855058.368554, 1488855058.368554, -3.141113, +1.084717, +0.814087, +5.869497, +272.603851, -155.587372 
1488855058.372304, 1488855058.372304, -3.141113, +1.084717, +0.814087, -0.813852, +236.532074, -145.516571 
1488855058.376058, 1488855058.376058, -3.141113, +1.084717, +0.814087, -0.813852, +236.532074, -145.516571 
1488855058.379808, 1488855058.379808, -3.141113, +1.084717, +0.814087, -0.813852, +236.532074, -145.516571 
1488855058.383685, 1488855058.383685, -2.865112, +1.329468, +1.360840, +9.775747, +185.613495, -130.242523 
1488855058.387430, 1488855058.387430, -2.865112, +1.329468, +1.360840, +9.775747, +185.613495, -130.242523 
1488855058.391180, 1488855058.391180, -2.865112, +1.329468, +1.360840, +9.775747, +146.550995, -91.592018 
1488855058.395175, 1488855058.395175, -2.865112, +1.329468, +1.360840, +39.316765, +148.046356, -91.592018 
1488855058.399106, 1488855058.399106, -2.865112, +1.329468, +1.360840, +39.316765, +148.046356, -91.592018 
1488855058.403037, 1488855058.403037, -2.222778, +1.579102, +1.896729, +58.466545, +113.225807, -37.224949 
1488855058.406960, 1488855058.406960, -2.222778, +1.579102, +1.896729, +58.466545, +113.225807, -37.224949 
1488855058.410884, 1488855058.410884, -2.222778, +1.579102, +1.896729, +58.466545, +113.225807, -37.224949 
1488855058.414808, 1488855058.414808, -2.222778, +1.579102, +1.896729, +44.520012, +56.920872, +7.483303 
1488855058.418728, 1488855058.418728, -2.222778, +1.579102, +1.896729, +44.520012, +56.920872, +7.483303 
1488855058.422650, 1488855058.422650, -2.296143, +1.730103, +2.358521, +44.520012, +56.920872, +7.483303 
1488855058.426429, 1488855058.426429, -2.296143, +1.730103, +2.358521, +10.569204, -11.514795, +37.741482 
1488855058.430178, 1488855058.430178, -2.296143, +1.730103, +2.358521, +10.569204, -11.514795, +37.741482 
1488855058.433951, 1488855058.433951, -2.296143, +1.730103, +2.358521, +10.569204, -11.514795, +37.741482 
1488855058.437701, 1488855058.437701, -2.296143, +1.730103, +2.358521, -10.930429, -83.215843, +48.926174 
1488855058.441450, 1488855058.441450, -0.452393, -1.246338, -1.436401, -10.930429, -83.215843, +48.926174 
1488855058.445424, 1488855058.445424, -0.465698, -1.246338, -1.436401, -10.930429, -83.215843, +15.448391 
1488855058.449456, 1488855058.449456, -0.465698, -1.246338, -1.436401, +9.836782, -87.183128, +15.448391 
1488855058.453692, 1488855058.453692, -0.465698, -1.246338, -1.436401, +9.836782, -87.183128, +15.448391 
1488855058.457635, 1488855058.457635, -0.465698, -1.246338, -1.436401, +35.166374, +36.718235, -49.691380 
1488855058.461577, 1488855058.461577, -1.626465, -2.288208, -2.733398, +35.166374, +36.718235, -49.691380 
1488855058.465637, 1488855058.465637, -1.626465, -2.288208, -2.733398, +35.166374, +36.718235, -49.691380 
1488855058.469583, 1488855058.469583, -1.626465, -2.288208, -2.733398, +10.294546, +74.087013, -43.679417 
1488855058.473537, 1488855058.473537, -1.626465, -2.288208, -2.733398, +10.294546, +74.087013, -43.679417 
1488855058.477481, 1488855058.477481, -1.626465, -2.288208, -2.733398, +10.294546, +74.087013, -43.679417 
1488855058.481428, 1488855058.481428, -1.841797, +0.389771, +0.680298, -28.508554, -60.983791, +3.104030 
1488855058.485272, 1488855058.485272, -1.841797, +0.389771, +0.680298, -28.508554, -60.983791, +3.104030 
1488855058.489021, 1488855058.489021, -1.841797, +0.389771, +0.680298, -28.508554, -60.983791, +12.854397 
1488855058.492771, 1488855058.492771, -1.841797, +0.389771, +0.680298, -68.013557, -127.969872, +12.854397 
1488855058.496704, 1488855058.496704, -1.841797, +0.389771, +0.680298, -68.013557, -127.969872, +12.854397 
1488855058.500449, 1488855058.500449, -1.841797, +0.577271, -1.075562, -71.919807, -101.312767, +43.280422 
1488855058.504510, 1488855058.504510, -1.141724, +0.572510, -1.075562, -74.117073, -101.312767, +43.280422 
1488855058.508264, 1488855058.508264, -1.141724, +0.572510, -1.075562, -74.117073, -101.312767, +43.280422 
1488855058.512537, 1488855058.512537, -1.141724, +0.572510, -1.075562, -65.495857, -57.565823, +46.622097 
1488855058.516612, 1488855058.516612, -1.141724, +0.572510, -1.075562, -65.495857, -57.565823, +46.622097 
1488855058.520554, 1488855058.520554, -1.141724, -0.241577, +0.021606, -65.495857, -57.565823, +46.622097 
1488855058.524516, 1488855058.524516, -0.924316, -0.241577, +0.021606, -29.271494, -61.670437, +45.599758 
1488855058.528462, 1488855058.528462, -0.924316, -0.241577, +0.021606, -29.271494, -61.670437, +45.599758 
1488855058.532409, 1488855058.532409, -0.924316, -0.241577, +0.021606, -29.271494, -61.670437, +65.131004 
1488855058.536203, 1488855058.536203, -0.924316, -0.241577, +0.021606, +37.729851, -56.009426, +62.704861 
1488855058.539960, 1488855058.539960, -0.924316, -0.241577, -0.384155, +37.729851, -56.009426, +62.704861 
1488855058.543753, 1488855058.543753, -1.028442, +0.236938, -0.384155, +37.729851, -36.478176, +79.886253 
1488855058.547693, 1488855058.547693, -1.028442, +0.236938, -0.384155, +96.567741, -38.522854, +79.886253 
1488855058.551948, 1488855058.551948, -1.028442, +0.236938, -0.384155, +96.567741, -38.522854, +79.886253 
1488855058.555922, 1488855058.555922, -1.028442, +0.236938, -0.384155, +113.962761, -44.641628, +84.631737 
1488855058.559870, 1488855058.559870, -1.028442, +0.236938, -0.546387, +113.962761, -44.641628, +84.631737 
1488855058.563863, 1488855058.563863, -1.435059, +0.331055, -0.546387, +113.962761, -44.641628, +84.631737 
1488855058.567811, 1488855058.567811, -1.435059, +0.331055, -0.546387, +99.711052, -58.572903, +72.684105 
1488855058.571906, 1488855058.571906, -1.435059, +0.331055, -0.546387, +99.711052, -58.572903, +72.684105 
1488855058.576289, 1488855058.576289, -1.435059, +0.331055, -0.546387, +99.711052, -50.760403, +62.262356 
1488855058.580241, 1488855058.580241, -1.185059, +0.372681, -0.620850, +79.004875, -51.904812, +62.262356 
1488855058.584156, 1488855058.584156, -1.171997, +0.372681, -0.620850, +79.004875, -51.904812, +62.262356 
1488855058.587906, 1488855058.587906, -1.171997, +0.372681, -0.620850, +42.749992, -58.115139, +49.155056 
1488855058.591659, 1488855058.591659, -1.171997, +0.372681, -0.620850, +42.749992, -58.115139, +49.155056 
1488855058.595511, 1488855058.595511, -1.171997, +0.372681, -0.620850, +42.749992, -58.115139, +49.155056 
1488855058.599265, 1488855058.599265, -1.171997, +0.372681, -0.370850, -2.248178, -75.616966, +32.507717 
1488855058.603116, 1488855058.603116, -0.913940, +0.307617, -0.356934, -2.248178, -75.616966, +32.507717 
1488855058.606870, 1488855058.606870, -0.913940, +0.307617, -0.356934, -2.248178, -75.616966, +32.507717 
1488855058.610624, 1488855058.610624, -0.913940, +0.307617, -0.356934, -25.884043, -79.630028, +29.761135 
1488855058.614540, 1488855058.614540, -0.913940, +0.307617, -0.356934, -25.884043, -79.630028, +29.761135 
1488855058.618295, 1488855058.618295, -0.913940, +0.307617, -0.356934, -25.884043, -79.630028, +29.761135 
1488855058.622050, 1488855058.622050, -0.993652, +0.258911, -0.404053, -32.063850, -74.670921, +31.271755 
1488855058.626032, 1488855058.626032, -0.993652, +0.258911, -0.404053, -32.063850, -74.670921, +31.271755 
1488855058.629781, 1488855058.629781, -0.993652, +0.258911, -0.404053, -32.063850, -74.670921, +31.271755 
1488855058.633636, 1488855058.633636, -0.993652, +0.258911, -0.404053, -35.252937, -66.980492, +25.412380 
1488855058.637391, 1488855058.637391, -0.993652, +0.258911, -0.404053, -35.252937, -66.980492, +25.412380 
1488855058.641140, 1488855058.641140, -1.212769, +0.215088, -0.341919, -35.252937, -66.980492, +20.270168 
1488855058.645161, 1488855058.645161, -1.212769, +0.215088, -0.341919, -34.535774, -58.298244, +20.270168 
1488855058.649590, 1488855058.649590, -1.212769, +0.215088, -0.341919, -34.535774, -58.298244, +20.270168 
1488855058.653441, 1488855058.653441, -1.212769, +0.215088, -0.341919, -26.296030, -58.908596, +15.906155 
1488855058.657194, 1488855058.657194, -1.212769, +0.215088, -0.341919, -26.296030, -58.908596, +15.906155 
1488855058.660939, 1488855058.660939, -1.038208, +0.048218, -0.278076, -26.296030, -58.908596, +15.906155 
1488855058.664686, 1488855058.664686, -1.038208, +0.048218, -0.278076, -15.035044, -63.104763, +8.230984 
1488855058.668426, 1488855058.668426, -1.038208, +0.048218, -0.278076, -15.035044, -63.104763, +8.230984 
1488855058.672169, 1488855058.672169, -1.038208, +0.048218, -0.278076, -15.035044, -63.104763, +8.230984 
1488855058.675949, 1488855058.675949, -1.038208, +0.048218, -0.278076, -6.444345, -58.878078, +3.470241 
1488855058.679686, 1488855058.679686, -0.977295, +0.155396, -0.364136, -6.444345, -58.878078, +3.470241 
1488855058.683482, 1488855058.683482, -0.977295, +0.155396, -0.364136, -6.444345, -58.878078, +3.470241 
1488855058.687217, 1488855058.687217, -0.977295, +0.155396, -0.364136, -0.829111, -54.636135, +10.977566 
1488855058.690955, 1488855058.690955, -0.977295, +0.155396, -0.364136, -0.829111, -54.636135, +10.977566 
1488855058.694780, 1488855058.694780, -0.977295, +0.155396, -0.364136, -0.829111, -54.636135, +10.977566 
1488855058.698524, 1488855058.698524, -0.977295, +0.155396, -0.114136, +3.534903, -54.147854, +19.690334 
1488855058.702263, 1488855058.702263, -1.117432, +0.101562, -0.111450, +3.534903, -54.147854, +19.690334 
1488855058.706140, 1488855058.706140, -1.117432, +0.101562, -0.111450, +3.534903, -54.147854, +19.690334 
1488855058.709870, 1488855058.709870, -1.117432, +0.101562, -0.111450, +5.472769, -50.409451, +22.055447 
1488855058.713660, 1488855058.713660, -1.117432, +0.101562, -0.111450, +5.472769, -50.409451, +22.055447 
1488855058.717397, 1488855058.717397, -1.117432, +0.101562, -0.111450, +5.472769, -50.409451, +29.867947 
1488855058.721138, 1488855058.721138, -1.049805, +0.142700, -0.221313, +12.247671, -41.711941, +26.648342 
1488855058.724989, 1488855058.724989, -1.049805, +0.142700, -0.221313, +12.247671, -41.711941, +26.648342 
1488855058.728932, 1488855058.728932, -1.049805, +0.142700, -0.221313, +12.247671, -33.517971, +30.035793 
1488855058.733124, 1488855058.733124, -1.049805, +0.142700, -0.221313, +21.311392, -33.517971, +30.035793 
1488855058.736878, 1488855058.736878, -1.049805, +0.142700, -0.221313, +21.311392, -33.517971, +30.035793 
1488855058.741264, 1488855058.741264, -1.150146, +0.271973, -0.307373, +26.346792, -30.054224, +29.532253 
1488855058.745055, 1488855058.745055, -1.150146, +0.271973, -0.307373, +26.346792, -30.054224, +29.532253 
1488855058.748802, 1488855058.748802, -1.150146, +0.271973, -0.307373, +26.346792, -30.054224, +29.532253 
1488855058.752542, 1488855058.752542, -1.150146, +0.271973, -0.307373, +25.477041, -31.747950, +24.161160 
1488855058.756334, 1488855058.756334, -1.150146, +0.271973, -0.307373, +25.477041, -31.747950, +24.161160 
1488855058.760083, 1488855058.760083, -1.262451, +0.265503, -0.309204, +25.477041, -31.747950, +24.161160 
1488855058.763982, 1488855058.763982, -1.262451, +0.265503, -0.309204, +25.797476, -40.903225, +19.415676 
1488855058.767733, 1488855058.767733, -1.262451, +0.265503, -0.309204, +25.797476, -40.903225, +19.415676 
1488855058.771474, 1488855058.771474, -1.262451, +0.265503, -0.309204, +25.797476, -40.903225, +19.415676 
1488855058.775231, 1488855058.775231, -1.262451, +0.265503, -0.309204, +24.897207, -50.775661, +20.605862 
1488855058.778966, 1488855058.778966, -0.890991, +0.133179, -0.421265, +24.897207, -50.775661, +20.605862 
1488855058.782708, 1488855058.782708, -0.890991, +0.133179, -0.421265, +24.897207, -50.775661, +20.605862 
1488855058.786512, 1488855058.786512, -0.890991, +0.133179, -0.421265, +6.388296, -50.073757, +20.132839 
1488855058.790259, 1488855058.790259, -0.890991, +0.133179, -0.421265, +6.388296, -50.073757, +20.132839 
1488855058.794213, 1488855058.794213, -0.890991, +0.133179, -0.421265, +6.388296, -47.800198, +22.467434 
1488855058.798151, 1488855058.798151, -0.890991, +0.133179, -0.384033, +6.022085, -47.800198, +22.467434 
1488855058.802098, 1488855058.802098, -1.062866, +0.141357, -0.384033, +6.022085, -47.800198, +22.467434 
1488855058.806078, 1488855058.806078, -1.062866, +0.141357, -0.384033, +5.671133, -47.357693, +19.873440 
1488855058.810017, 1488855058.810017, -1.062866, +0.141357, -0.384033, +5.671133, -47.357693, +19.873440 
1488855058.813974, 1488855058.813974, -1.062866, +0.141357, -0.384033, +5.671133, -47.357693, +19.873440 
1488855058.817919, 1488855058.817919, -1.062866, +0.235107, -0.280518, +6.846060, -47.769680, +21.231472 
1488855058.821862, 1488855058.821862, -1.114624, +0.220215, -0.280518, +6.846060, -47.769680, +21.231472 
1488855058.825810, 1488855058.825810, -1.114624, +0.220215, -0.280518, +6.846060, -47.769680, +21.231472 
1488855058.829759, 1488855058.829759, -1.114624, +0.220215, -0.280518, +10.416616, -49.356594, +22.543728 
1488855058.833682, 1488855058.833682, -1.114624, +0.220215, -0.280518, +10.416616, -49.356594, +22.543728 
1488855058.837502, 1488855058.837502, -1.114624, +0.220215, -0.290894, +10.416616, -49.356594, +23.657619 
1488855058.841248, 1488855058.841248, -1.195557, +0.241333, -0.290894, +10.676016, -48.990383, +23.657619 
1488855058.845026, 1488855058.845026, -1.195557, +0.241333, -0.290894, +10.676016, -48.990383, +23.657619 
1488855058.848775, 1488855058.848775, -1.195557, +0.241333, -0.290894, +2.863516, -53.980007, +25.626003 
1488855058.852643, 1488855058.852643, -1.195557, +0.241333, -0.290894, +6.479849, -53.980007, +25.626003 
1488855058.856808, 1488855058.856808, -1.195557, +0.241333, -0.290894, +6.479849, -53.980007, +25.626003 
1488855058.860551, 1488855058.860551, -1.092651, +0.182129, -0.464966, -2.202402, -57.092800, +26.434719 
1488855058.864409, 1488855058.864409, -1.092651, +0.182129, -0.464966, -2.202402, -57.092800, +26.434719 
1488855058.868151, 1488855058.868151, -1.092651, +0.182129, -0.464966, -2.202402, -57.092800, +26.434719 
1488855058.871886, 1488855058.871886, -1.092651, +0.182129, -0.464966, -11.571299, -60.083523, +26.816189 
1488855058.875637, 1488855058.875637, -1.092651, +0.182129, -0.464966, -11.571299, -60.083523, +26.816189 
1488855058.879383, 1488855058.879383, -1.025269, +0.184448, -0.315552, -11.571299, -60.083523, +26.816189 
1488855058.883131, 1488855058.883131, -1.025269, +0.184448, -0.315552, -17.201792, -62.997952, +28.891384 
1488855058.886871, 1488855058.886871, -1.025269, +0.184448, -0.315552, -17.201792, -62.997952, +28.891384 
1488855058.890617, 1488855058.890617, -1.025269, +0.184448, -0.315552, -17.201792, -62.997952, +28.891384 
1488855058.894436, 1488855058.894436, -1.025269, +0.184448, -0.315552, -16.988169, -67.392479, +31.256496 
1488855058.898176, 1488855058.898176, -0.963135, +0.176270, -0.276733, -16.988169, -67.392479, +31.256496 
1488855058.901923, 1488855058.901923, -0.963135, +0.176270, -0.276733, -16.988169, -67.392479, +31.256496 
1488855058.905776, 1488855058.905776, -0.963135, +0.176270, -0.276733, -16.332041, -70.459496, +32.828152 
1488855058.909637, 1488855058.909637, -0.963135, +0.176270, -0.276733, -16.332041, -70.459496, +32.828152 
1488855058.913418, 1488855058.913418, -0.963135, +0.176270, -0.276733, -16.332041, -70.459496, +36.734402 
1488855058.917176, 1488855058.917176, -0.963135, +0.332520, -0.188965, -15.035044, -74.487816, +36.230862 
1488855058.920919, 1488855058.920919, -1.103271, +0.318604, -0.188965, -15.035044, -74.487816, +36.230862 
1488855058.924673, 1488855058.924673, -1.103271, +0.318604, -0.188965, -15.035044, -78.394066, +37.833035 
1488855058.928419, 1488855058.928419, -1.103271, +0.318604, -0.188965, -18.422495, -78.683983, +37.833035 
1488855058.932162, 1488855058.932162, -1.103271, +0.318604, -0.188965, -18.422495, -78.683983, +37.833035 
1488855058.936127, 1488855058.936127, -1.103271, +0.318604, -0.188965, -25.365244, -83.154808, +39.130032 
1488855058.940077, 1488855058.940077, -1.021118, +0.212036, -0.339844, -25.365244, -83.154808, +39.130032 
1488855058.944213, 1488855058.944213, -1.021118, +0.212036, -0.339844, -25.365244, -83.154808, +39.130032 
1488855058.948105, 1488855058.948105, -1.021118, +0.212036, -0.339844, -29.286753, -82.559715, +39.908230 
1488855058.952400, 1488855058.952400, -1.021118, +0.212036, -0.339844, -29.286753, -82.559715, +39.908230 
1488855058.956202, 1488855058.956202, -1.021118, +0.212036, -0.339844, -29.286753, -82.559715, +39.908230 
1488855058.959943, 1488855058.959943, -1.099731, +0.310669, -0.174927, -27.058969, -81.613670, +41.098415 
1488855058.963692, 1488855058.963692, -1.099731, +0.310669, -0.174927, -27.058969, -81.613670, +41.098415 
1488855058.967434, 1488855058.967434, -1.099731, +0.310669, -0.174927, -27.058969, -81.613670, +41.098415 
1488855058.971180, 1488855058.971180, -1.099731, +0.310669, -0.174927, -26.509653, -81.247459, +42.486965 
1488855058.974966, 1488855058.974966, -1.099731, +0.310669, -0.174927, -26.509653, -81.247459, +42.486965 
1488855058.978711, 1488855058.978711, -1.099365, +0.369995, -0.104980, -26.509653, -81.247459, +42.486965 
1488855058.982456, 1488855058.982456, -1.099365, +0.369995, -0.104980, -23.717295, -78.760277, +42.456448 
1488855058.986209, 1488855058.986209, -1.099365, +0.369995, -0.104980, -23.717295, -78.760277, +42.456448 
1488855058.989953, 1488855058.989953, -1.099365, +0.369995, -0.104980, -23.717295, -78.760277, +40.610134 
1488855058.993794, 1488855058.993794, -1.099365, +0.369995, -0.104980, -25.655161, -78.287254, +40.610134 
1488855058.997551, 1488855058.997551, -1.013428, +0.352539, +0.064087, -25.655161, -78.287254, +40.610134 
1488855059.001301, 1488855059.001301, -1.013428, +0.352539, +0.064087, -25.655161, -76.181541, +38.855373 
1488855059.005246, 1488855059.005246, -1.013428, +0.352539, +0.064087, -25.243174, -76.181541, +38.855373 
1488855059.009188, 1488855059.009188, -1.013428, +0.352539, +0.064087, -25.243174, -76.181541, +38.855373 
1488855059.013135, 1488855059.013135, -1.013428, +0.352539, +0.064087, -24.190317, -73.495995, +36.749660 
1488855059.017075, 1488855059.017075, -0.953613, +0.392334, +0.114258, -24.190317, -73.495995, +36.749660 
1488855059.021022, 1488855059.021022, -0.953613, +0.392334, +0.114258, -24.190317, -73.495995, +36.749660 
1488855059.024978, 1488855059.024978, -0.953613, +0.392334, +0.114258, -24.739634, -72.031151, +33.743679 
1488855059.028919, 1488855059.028919, -0.953613, +0.392334, +0.114258, -24.739634, -72.031151, +33.743679 
1488855059.032869, 1488855059.032869, -0.953613, +0.392334, +0.114258, -24.739634, -72.031151, +33.743679 
1488855059.036640, 1488855059.036640, -1.047363, +0.416260, +0.072876, -24.007212, -69.833885, +30.798733 
1488855059.040396, 1488855059.040396, -1.047363, +0.416260, +0.072876, -24.007212, -69.833885, +30.798733 
1488855059.044479, 1488855059.044479, -1.047363, +0.416260, +0.072876, -24.007212, -69.833885, +30.508816 
1488855059.048942, 1488855059.048942, -1.047363, +0.416260, +0.072876, -21.428476, -68.796288, +30.508816 
1488855059.052685, 1488855059.052685, -1.047363, +0.416260, +0.072876, -21.428476, -68.796288, +30.508816 
1488855059.056437, 1488855059.056437, -1.234863, +0.419312, -0.060303, -21.092783, -68.964134, +29.272854 
1488855059.060289, 1488855059.060289, -1.249268, +0.419312, -0.060303, -21.092783, -68.964134, +29.272854 
1488855059.064077, 1488855059.064077, -1.249268, +0.419312, -0.060303, -21.092783, -68.964134, +29.272854 
1488855059.067817, 1488855059.067817, -1.249268, +0.419312, -0.060303, -20.650278, -69.940697, +28.387844 
1488855059.071565, 1488855059.071565, -1.249268, +0.419312, -0.060303, -20.650278, -69.940697, +28.387844 
1488855059.075352, 1488855059.075352, -1.249268, +0.419312, -0.060303, -20.650278, -69.940697, +28.387844 
1488855059.079096, 1488855059.079096, -1.355103, +0.448486, -0.048828, -20.772348, -72.015892, +28.357327 
1488855059.082837, 1488855059.082837, -1.355103, +0.448486, -0.048828, -20.772348, -72.015892, +28.357327 
1488855059.086665, 1488855059.086665, -1.355103, +0.448486, -0.048828, -20.772348, -72.015892, +28.357327 
1488855059.090411, 1488855059.090411, -1.355103, +0.448486, -0.048828, -23.641001, -74.274193, +27.594387 
1488855059.094203, 1488855059.094203, -1.355103, +0.448486, -0.048828, -23.641001, -74.274193, +27.594387 
1488855059.097956, 1488855059.097956, -1.135010, +0.426147, +0.080200, -23.641001, -74.274193, +27.594387 
1488855059.101708, 1488855059.101708, -1.135010, +0.426147, +0.080200, -28.096567, -75.784813, +26.358425 
1488855059.105718, 1488855059.105718, -1.135010, +0.426147, +0.080200, -28.096567, -75.784813, +26.358425 
1488855059.109663, 1488855059.109663, -1.135010, +0.426147, +0.080200, -28.096567, -75.784813, +25.275051 
1488855059.113670, 1488855059.113670, -1.135010, +0.426147, +0.080200, -31.209360, -77.737938, +25.275051 
1488855059.117610, 1488855059.117610, -1.232910, +0.308105, +0.015747, -31.209360, -77.737938, +25.275051 
1488855059.121559, 1488855059.121559, -1.232910, +0.308105, +0.015747, -32.231697, -80.682884, +23.993313 
1488855059.125523, 1488855059.125523, -1.232910, +0.308105, +0.015747, -32.231697, -80.682884, +23.993313 
1488855059.129463, 1488855059.129463, -1.232910, +0.308105, +0.015747, -32.231697, -80.682884, +23.993313 
1488855059.133415, 1488855059.133415, -1.232910, +0.308105, +0.015747, -31.972300, -80.591331, +21.612942 
1488855059.137360, 1488855059.137360, -1.311646, +0.488647, +0.181030, -31.972300, -80.591331, +21.612942 
1488855059.141311, 1488855059.141311, -1.311646, +0.488647, +0.181030, -31.972300, -80.591331, +21.612942 
1488855059.145301, 1488855059.145301, -1.311646, +0.488647, +0.181030, -28.676401, -81.857811, +23.398220 
1488855059.149253, 1488855059.149253, -1.311646, +0.488647, +0.181030, -28.676401, -81.857811, +23.398220 
1488855059.153240, 1488855059.153240, -1.311646, +0.488647, +0.181030, -28.676401, -85.764061, +25.259792 
1488855059.157192, 1488855059.157192, -1.498047, +0.554321, -0.104736, -26.265512, -85.352074, +25.259792 
1488855059.161201, 1488855059.161201, -1.498047, +0.554321, -0.104736, -26.265512, -85.352074, +25.259792 
1488855059.165419, 1488855059.165419, -1.498047, +0.554321, -0.104736, -28.935801, -86.771141, +23.581326 
1488855059.169374, 1488855059.169374, -1.498047, +0.554321, -0.104736, -28.935801, -86.771141, +23.581326 
1488855059.173326, 1488855059.173326, -1.498047, +0.554321, -0.104736, -28.935801, -86.771141, +23.581326 
1488855059.177075, 1488855059.177075, -1.619019, +0.522949, +0.061523, -32.918343, -89.258324, +22.757351 
1488855059.180829, 1488855059.180829, -1.619019, +0.522949, +0.061523, -32.918343, -89.258324, +22.757351 
1488855059.184632, 1488855059.184632, -1.619019, +0.522949, +0.061523, -32.918343, -89.258324, +22.757351 
1488855059.188378, 1488855059.188378, -1.619019, +0.522949, +0.061523, -31.834970, -94.614159, +27.685940 
1488855059.192118, 1488855059.192118, -1.619019, +0.522949, +0.061523, -31.834970, -94.614159, +27.685940 
1488855059.195886, 1488855059.195886, -1.802002, +0.295044, -0.293701, -31.834970, -94.614159, +27.685940 
1488855059.199624, 1488855059.199624, -1.802002, +0.295044, -0.293701, -38.014778, -101.709496, +29.059231 
1488855059.203380, 1488855059.203380, -1.802002, +0.295044, -0.293701, -38.014778, -101.709496, +29.059231 
1488855059.207234, 1488855059.207234, -1.802002, +0.295044, -0.293701, -38.014778, -101.709496, +32.965481 
1488855059.210981, 1488855059.210981, -1.802002, +0.295044, -0.293701, -38.243660, -106.790672, +31.210720 
1488855059.214773, 1488855059.214773, -1.802002, +0.295044, -0.261475, -38.243660, -106.790672, +31.210720 
1488855059.218517, 1488855059.218517, -1.827148, +0.284790, -0.261475, -38.243660, -106.790672, +34.338772 
1488855059.222257, 1488855059.222257, -1.827148, +0.284790, -0.261475, -36.717781, -110.941063, +34.338772 
1488855059.226125, 1488855059.226125, -1.827148, +0.284790, -0.261475, -36.717781, -110.941063, +34.338772 
1488855059.229870, 1488855059.229870, -1.827148, +0.284790, -0.261475, -40.624031, -113.550316, +35.483181 
1488855059.233667, 1488855059.233667, -1.827148, +0.284790, -0.261475, -40.929207, -113.550316, +35.483181 
1488855059.237419, 1488855059.237419, -1.736816, +0.406860, -0.094971, -40.929207, -113.550316, +35.483181 
1488855059.241171, 1488855059.241171, -1.736816, +0.406860, -0.094971, -49.397835, -115.778099, +33.789455 
1488855059.244998, 1488855059.244998, -1.736816, +0.406860, -0.094971, -49.397835, -115.778099, +33.789455 
1488855059.249553, 1488855059.249553, -1.736816, +0.406860, -0.094971, -49.397835, -115.778099, +33.789455 
1488855059.253476, 1488855059.253476, -1.736816, +0.406860, -0.094971, -57.225594, -116.495262, +28.113186 
1488855059.257223, 1488855059.257223, -1.404175, +0.036499, -0.178955, -57.225594, -116.495262, +28.113186 
1488855059.261233, 1488855059.261233, -1.404175, +0.036499, -0.178955, -57.225594, -116.495262, +28.113186 
1488855059.265031, 1488855059.265031, -1.404175, +0.036499, -0.178955, -57.210335, -114.557396, +21.261990 
1488855059.268778, 1488855059.268778, -1.404175, +0.036499, -0.178955, -57.210335, -114.557396, +21.261990 
1488855059.272520, 1488855059.272520, -1.404175, +0.036499, -0.178955, -57.210335, -114.557396, +21.261990 
1488855059.276345, 1488855059.276345, -1.222046, +0.051636, +0.092163, -45.674690, -110.864769, +20.041286 
1488855059.280086, 1488855059.280086, -1.222046, +0.051636, +0.092163, -45.674690, -110.864769, +20.041286 
1488855059.283915, 1488855059.283915, -1.222046, +0.051636, +0.092163, -45.674690, -106.958519, +18.988430 
1488855059.287654, 1488855059.287654, -1.222046, +0.051636, +0.092163, -32.796272, -105.951439, +18.988430 
1488855059.291402, 1488855059.291402, -1.222046, +0.051636, +0.092163, -32.796272, -105.951439, +18.988430 
1488855059.295207, 1488855059.295207, -0.894165, +0.171509, +0.072021, -28.890024, -98.062645, +14.960110 
1488855059.298950, 1488855059.298950, -0.894165, +0.171509, +0.072021, -29.225718, -98.062645, +14.960110 
1488855059.302705, 1488855059.302705, -0.894165, +0.171509, +0.072021, -29.225718, -98.062645, +14.960110 
1488855059.306516, 1488855059.306516, -0.894165, +0.171509, +0.072021, -33.788094, -89.944969, +8.749783 
1488855059.310272, 1488855059.310272, -0.894165, +0.171509, +0.072021, -33.788094, -89.944969, +8.749783 
1488855059.314164, 1488855059.314164, -0.894165, +0.376709, +0.282349, -33.788094, -89.944969, +8.749783 
1488855059.317912, 1488855059.317912, -0.810181, +0.376709, +0.282349, -36.839851, -86.328636, +1.623928 
1488855059.321663, 1488855059.321663, -0.810181, +0.376709, +0.282349, -36.839851, -86.328636, +1.623928 
1488855059.325551, 1488855059.325551, -0.810181, +0.376709, +0.282349, -36.839851, -86.328636, +1.623928 
1488855059.329503, 1488855059.329503, -0.810181, +0.376709, +0.282349, -36.656746, -85.168968, -0.786961 
1488855059.333475, 1488855059.333475, -0.810181, +0.376709, +0.117432, -36.656746, -85.168968, -0.786961 
1488855059.337233, 1488855059.337233, -0.740234, +0.366455, +0.117432, -36.656746, -85.168968, -0.786961 
1488855059.340983, 1488855059.340983, -0.740234, +0.366455, +0.117432, -26.219736, -83.826195, +3.119289 
1488855059.344863, 1488855059.344863, -0.740234, +0.366455, +0.117432, -26.219736, -83.826195, +3.119289 
1488855059.348776, 1488855059.348776, -0.740234, +0.366455, +0.117432, -26.219736, -83.826195, +3.119289 
1488855059.352830, 1488855059.352830, -0.740234, +0.366455, +0.117432, -7.909189, -76.059471, +6.827175 
1488855059.356728, 1488855059.356728, -0.683960, +0.557373, +0.107788, -7.909189, -76.059471, +6.827175 
1488855059.360612, 1488855059.360612, -0.683960, +0.557373, +0.107788, +7.441153, -66.980492, +11.084377 
1488855059.364572, 1488855059.364572, -0.683960, +0.557373, +0.107788, +7.441153, -66.980492, +11.084377 
1488855059.368520, 1488855059.368520, -0.683960, +0.557373, +0.107788, +7.441153, -66.980492, +11.084377 
1488855059.373468, 1488855059.373468, -0.683960, +0.526123, -0.096069, +20.594229, -58.176174, +13.495266 
1488855059.377221, 1488855059.377221, -0.559814, +0.504272, -0.096069, +20.594229, -58.176174, +13.495266 
1488855059.380954, 1488855059.380954, -0.559814, +0.504272, -0.096069, +20.594229, -58.176174, +13.495266 
1488855059.384701, 1488855059.384701, -0.559814, +0.504272, -0.096069, +25.538076, -38.370266, +3.042995 
1488855059.388441, 1488855059.388441, -0.559814, +0.504272, -0.096069, +25.538076, -38.370266, +3.042995 
1488855059.392183, 1488855059.392183, -0.559814, +0.504272, -0.096069, +25.538076, -38.370266, +3.042995 
1488855059.395976, 1488855059.395976, -0.559814, +0.037476, -0.791260, +26.133169, -7.410182, -11.712254 
1488855059.399716, 1488855059.399716, -0.559814, +0.037476, -0.791260, +26.133169, -7.410182, -11.712254 
1488855059.403498, 1488855059.403498, -0.559814, +0.037476, -0.791260, +26.133169, -7.410182, -23.736179 
1488855059.407242, 1488855059.407242, -0.559814, +0.037476, -0.791260, +36.326042, +15.432226, -23.736179 
1488855059.410995, 1488855059.410995, -0.559814, +0.037476, -0.791260, +36.326042, +15.432226, -23.736179 
1488855059.414806, 1488855059.414806, -0.769653, -0.097778, -0.569824, +36.326042, +27.318823, -37.896336 
1488855059.418545, 1488855059.418545, -0.769653, -0.097778, -0.569824, +38.523308, +27.318823, -37.896336 
1488855059.422290, 1488855059.422290, -0.769653, -0.097778, -0.569824, +38.523308, +27.318823, -37.896336 
1488855059.426129, 1488855059.426129, -0.769653, -0.097778, -0.569824, +31.366934, +35.772190, -50.530613 
1488855059.429869, 1488855059.429869, -0.769653, -0.097778, -0.569824, +31.366934, +35.772190, -50.530613 
1488855059.433775, 1488855059.433775, -0.594727, -0.001953, -0.475952, +31.366934, +35.772190, -50.530613 
1488855059.437528, 1488855059.437528, -0.594727, -0.001953, -0.475952, +26.621450, +50.283298, -58.922947 
1488855059.441269, 1488855059.441269, -0.594727, -0.001953, -0.475952, +26.621450, +50.283298, -58.922947 
1488855059.445041, 1488855059.445041, -0.594727, -0.001953, -0.475952, +26.621450, +50.283298, -58.922947 
1488855059.448787, 1488855059.448787, -0.594727, -0.001953, -0.475952, +30.466665, +72.118629, -63.668430 
1488855059.452535, 1488855059.452535, -0.594727, -0.001953, -0.542603, +30.466665, +72.118629, -63.668430 
1488855059.456515, 1488855059.456515, -0.549316, +0.044434, -0.542603, +30.466665, +72.118629, -63.668430 
1488855059.460542, 1488855059.460542, -0.549316, +0.044434, -0.542603, +40.644279, +94.854225, -67.467873 
1488855059.464532, 1488855059.464532, -0.549316, +0.044434, -0.542603, +40.644279, +94.854225, -67.467873 
1488855059.469004, 1488855059.469004, -0.549316, +0.044434, -0.542603, +40.644279, +114.385475, -72.640602 
1488855059.472753, 1488855059.472753, -0.549316, +0.123779, -0.552246, +49.814812, +115.697731, -72.640602 
1488855059.476567, 1488855059.476567, -0.621460, +0.123779, -0.552246, +49.814812, +115.697731, -72.640602 
1488855059.480315, 1488855059.480315, -0.621460, +0.123779, -0.552246, +49.814812, +135.900360, -78.911964 
1488855059.484079, 1488855059.484079, -0.621460, +0.123779, -0.552246, +51.462761, +135.900360, -78.911964 
1488855059.487828, 1488855059.487828, -0.621460, +0.123779, -0.552246, +51.462761, +135.900360, -78.911964 
1488855059.491571, 1488855059.491571, -0.621460, +0.123779, -0.552246, +47.068230, +156.148773, -85.503761 
1488855059.495378, 1488855059.495378, -0.740112, +0.224121, -0.605835, +47.068230, +156.148773, -85.503761 
1488855059.499240, 1488855059.499240, -0.740112, +0.224121, -0.605835, +47.068230, +156.148773, -85.503761 
1488855059.503032, 1488855059.503032, -0.740112, +0.224121, -0.605835, +38.843742, +172.887665, -90.676491 
1488855059.506772, 1488855059.506772, -0.740112, +0.224121, -0.605835, +38.843742, +172.887665, -90.676491 
1488855059.510517, 1488855059.510517, -0.740112, +0.224121, -0.605835, +38.843742, +172.887665, -90.676491 
1488855059.514372, 1488855059.514372, -0.884888, +0.190063, -0.528442, +27.582754, +186.056000, -96.337502 
1488855059.518121, 1488855059.518121, -0.884888, +0.190063, -0.528442, +27.582754, +186.056000, -96.337502 
1488855059.521875, 1488855059.521875, -0.884888, +0.190063, -0.528442, +27.582754, +186.056000, -96.337502 
1488855059.525757, 1488855059.525757, -0.884888, +0.190063, -0.528442, +20.014395, +196.645599, -101.327126 
1488855059.529508, 1488855059.529508, -0.884888, +0.190063, -0.528442, +20.014395, +196.645599, -101.327126 
1488855059.533316, 1488855059.533316, -1.022339, +0.070679, -0.442505, +20.014395, +196.645599, -101.327126 
1488855059.537258, 1488855059.537258, -1.022339, +0.070679, -0.442505, +17.740835, +208.104950, -106.530373 
1488855059.541198, 1488855059.541198, -1.022339, +0.070679, -0.442505, +17.740835, +208.104950, -106.530373 
1488855059.545149, 1488855059.545149, -1.022339, +0.070679, -0.442505, +17.740835, +219.823700, -111.031715 
1488855059.549097, 1488855059.549097, -1.022339, +0.070679, -0.442505, +18.915762, +219.198090, -111.031715 
1488855059.553056, 1488855059.553056, -1.228271, -0.036255, -0.376709, +18.915762, +219.198090, -111.031715 
1488855059.556998, 1488855059.556998, -1.228271, -0.036255, -0.376709, +24.012197, +228.429657, -113.579933 
1488855059.560946, 1488855059.560946, -1.228271, -0.036255, -0.376709, +24.012197, +228.429657, -113.579933 
1488855059.564901, 1488855059.564901, -1.228271, -0.036255, -0.376709, +24.012197, +228.429657, -113.579933 
1488855059.568915, 1488855059.568915, -1.228271, -0.036255, -0.376709, +32.175652, +234.853607, -114.831154 
1488855059.572858, 1488855059.572858, -1.408813, -0.047241, -0.329346, +32.175652, +234.853607, -114.831154 
1488855059.576630, 1488855059.576630, -1.408813, -0.047241, -0.329346, +32.175652, +234.853607, -114.831154 
1488855059.580475, 1488855059.580475, -1.408813, -0.047241, -0.329346, +40.247551, +238.241058, -115.197365 
1488855059.585316, 1488855059.585316, -1.408813, -0.047241, -0.329346, +40.247551, +238.241058, -115.197365 
1488855059.589058, 1488855059.589058, -1.408813, -0.047241, -0.329346, +48.060051, +240.209442, -116.906349 
1488855059.592797, 1488855059.592797, -1.470093, +0.093262, -0.319702, +48.090569, +240.209442, -116.906349 
1488855059.596581, 1488855059.596581, -1.470093, +0.093262, -0.319702, +48.090569, +240.209442, -116.906349 
1488855059.600320, 1488855059.600320, -1.470093, +0.093262, -0.319702, +52.149406, +240.545135, -119.149391 
1488855059.604074, 1488855059.604074, -1.470093, +0.093262, -0.319702, +52.149406, +240.545135, -119.149391 
1488855059.607821, 1488855059.607821, -1.470093, +0.093262, -0.319702, +52.149406, +240.545135, -119.149391 
1488855059.611563, 1488855059.611563, -1.470093, +0.187012, -0.416870, +51.554314, +242.894989, -121.010963 
1488855059.615344, 1488855059.615344, -1.486572, +0.162964, -0.416870, +51.554314, +242.894989, -121.010963 
1488855059.619088, 1488855059.619088, -1.486572, +0.162964, -0.416870, +51.554314, +242.894989, -121.010963 
1488855059.622828, 1488855059.622828, -1.486572, +0.162964, -0.416870, +48.456779, +245.488983, -119.836037 
1488855059.626583, 1488855059.626583, -1.486572, +0.162964, -0.416870, +48.456779, +245.488983, -119.836037 
1488855059.630330, 1488855059.630330, -1.486572, +0.162964, -0.416870, +48.456779, +245.488983, -119.836037 
1488855059.634174, 1488855059.634174, -1.706299, +0.161377, -0.396851, +46.228996, +245.946747, -117.470924 
1488855059.637926, 1488855059.637926, -1.706299, +0.161377, -0.396851, +46.228996, +245.946747, -117.470924 
1488855059.641677, 1488855059.641677, -1.706299, +0.161377, -0.396851, +46.228996, +245.946747, -117.470924 
1488855059.645746, 1488855059.645746, -1.706299, +0.161377, -0.396851, +43.955437, +243.764740, -115.182106 
1488855059.649692, 1488855059.649692, -1.706299, +0.161377, -0.396851, +43.955437, +243.764740, -115.182106 
1488855059.653675, 1488855059.653675, -1.891846, +0.117310, -0.276245, +43.955437, +243.764740, -113.564674 
1488855059.657619, 1488855059.657619, -1.891846, +0.117310, -0.276245, +44.626823, +238.012177, -113.564674 
1488855059.661571, 1488855059.661571, -1.891846, +0.117310, -0.276245, +44.626823, +238.012177, -113.564674 
1488855059.665530, 1488855059.665530, -1.891846, +0.117310, -0.276245, +47.999016, +230.367523, -113.412086 
1488855059.669447, 1488855059.669447, -1.891846, +0.117310, -0.276245, +47.999016, +230.367523, -113.412086 
1488855059.673405, 1488855059.673405, -1.932617, +0.115234, -0.030151, +47.999016, +230.367523, -113.412086 
1488855059.677289, 1488855059.677289, -1.932617, +0.115234, -0.030151, +55.597893, +217.580658, -110.879128 
1488855059.681486, 1488855059.681486, -1.932617, +0.115234, -0.030151, +55.597893, +217.580658, -110.879128 
1488855059.685383, 1488855059.685383, -1.932617, +0.115234, -0.030151, +55.597893, +217.580658, -110.879128 
1488855059.689140, 1488855059.689140, -1.932617, +0.115234, -0.030151, +69.117180, +198.430878, -103.387062 
1488855059.692882, 1488855059.692882, -1.932983, +0.386353, +0.319824, +69.117180, +198.430878, -103.387062 
1488855059.696635, 1488855059.696635, -1.932983, +0.386353, +0.319824, +69.117180, +198.430878, -103.387062 
1488855059.700374, 1488855059.700374, -1.932983, +0.386353, +0.319824, +88.541618, +177.526337, -87.609474 
1488855059.704129, 1488855059.704129, -1.932983, +0.386353, +0.319824, +88.541618, +177.526337, -87.609474 
1488855059.707870, 1488855059.707870, -1.932983, +0.386353, +0.319824, +88.541618, +177.526337, -87.609474 
1488855059.711611, 1488855059.711611, -1.721313, +0.696533, +0.423828, +109.614006, +158.712250, -68.185036 
1488855059.715433, 1488855059.715433, -1.721313, +0.696533, +0.423828, +109.614006, +158.712250, -68.185036 
1488855059.719173, 1488855059.719173, -1.721313, +0.696533, +0.423828, +109.614006, +158.712250, -52.361668 
1488855059.722924, 1488855059.722924, -1.721313, +0.696533, +0.423828, +119.959465, +143.789154, -52.361668 
1488855059.726838, 1488855059.726838, -1.721313, +0.696533, +0.423828, +119.959465, +143.789154, -52.361668 
1488855059.730578, 1488855059.730578, -1.721313, +0.852783, +0.753296, +119.959465, +126.668800, -38.384617 
1488855059.734451, 1488855059.734451, -1.813721, +0.849487, +0.753296, +117.258659, +126.668800, -38.384617 
1488855059.738198, 1488855059.738198, -1.813721, +0.849487, +0.753296, +117.258659, +126.668800, -38.384617 
1488855059.741948, 1488855059.741948, -1.813721, +0.849487, +0.753296, +102.274529, +101.156105, -23.400486 
1488855059.745828, 1488855059.745828, -1.813721, +0.849487, +0.753296, +102.274529, +101.156105, -23.400486 
1488855059.749758, 1488855059.749758, -1.813721, +0.849487, +0.753296, +102.274529, +101.156105, -23.400486 
1488855059.753692, 1488855059.753692, -1.858276, +0.945557, +1.011841, +81.476799, +65.435280, -4.265965 
1488855059.757613, 1488855059.757613, -1.858276, +0.945557, +1.011841, +81.476799, +65.435280, -4.265965 
1488855059.761525, 1488855059.761525, -1.858276, +0.945557, +1.011841, +81.476799, +65.435280, -4.265965 
1488855059.765483, 1488855059.765483, -1.858276, +0.945557, +1.011841, +63.974968, +22.695410, +17.905056 
1488855059.769402, 1488855059.769402, -1.858276, +0.945557, +1.011841, +63.974968, +22.695410, +17.905056 
1488855059.773644, 1488855059.773644, -1.796753, +1.013062, +0.953857, +63.974968, +22.695410, +35.956203 
1488855059.777531, 1488855059.777531, -1.796753, +1.013062, +0.953857, +42.978874, -22.226465, +35.956203 
1488855059.782057, 1488855059.782057, -1.796753, +1.013062, +0.953857, +42.978874, -22.226465, +35.956203 
1488855059.785958, 1488855059.785958, -1.796753, +1.013062, +0.953857, +18.824209, -63.257351, +48.651516 
1488855059.789705, 1488855059.789705, -1.796753, +1.013062, +0.735107, +18.824209, -63.257351, +48.651516 
1488855059.793610, 1488855059.793610, -1.514160, +0.973267, +0.726562, +18.824209, -63.257351, +48.651516 
1488855059.797355, 1488855059.797355, -1.514160, +0.973267, +0.726562, -12.135874, -88.571678, +49.597561 
1488855059.801091, 1488855059.801091, -1.514160, +0.973267, +0.726562, -12.135874, -88.571678, +49.597561 
1488855059.804841, 1488855059.804841, -1.514160, +0.973267, +0.726562, -12.135874, -88.571678, +49.597561 
1488855059.808585, 1488855059.808585, -1.514160, +0.973267, +0.726562, -40.227303, -90.372215, +36.673367 
1488855059.812331, 1488855059.812331, -0.955811, -0.520264, -1.288330, -40.227303, -90.372215, +36.673367 
1488855059.816140, 1488855059.816140, -0.955811, -0.520264, -1.288330, -40.227303, -90.372215, +36.673367 
1488855059.819882, 1488855059.819882, -0.955811, -0.520264, -1.288330, -43.538460, -69.330345, +3.683864 
1488855059.823775, 1488855059.823775, -0.955811, -0.520264, -1.288330, -43.538460, -69.330345, +3.683864 
1488855059.827516, 1488855059.827516, -0.955811, -0.520264, -1.288330, -43.538460, -69.330345, +3.683864 
1488855059.831260, 1488855059.831260, -2.348633, -0.459717, -0.323853, -66.579231, -45.328274, -19.036472 
1488855059.835129, 1488855059.835129, -2.348633, -0.459717, -0.323853, -66.579231, -45.328274, -19.036472 
1488855059.838871, 1488855059.838871, -2.348633, -0.459717, -0.323853, -66.579231, -45.328274, +3.500759 
1488855059.842608, 1488855059.842608, -2.348633, -0.459717, -0.323853, -72.057137, -95.193993, +3.500759 
1488855059.846554, 1488855059.846554, -2.348633, -0.459717, -0.323853, -72.057137, -95.193993, +3.500759 
1488855059.850501, 1488855059.850501, -1.973267, +1.012085, -0.016724, -42.775520, -154.413361, +36.383450 
1488855059.854495, 1488855059.854495, -1.973267, +1.012085, -0.016724, -42.775520, -154.413361, +36.383450 
1488855059.858436, 1488855059.858436, -1.973267, +1.012085, -0.016724, -42.775520, -154.413361, +36.383450 
1488855059.862381, 1488855059.862381, -1.973267, +1.012085, -0.016724, -11.205088, -131.662506, +67.908104 
1488855059.866337, 1488855059.866337, -1.973267, +1.012085, -0.016724, -11.205088, -131.662506, +67.908104 
1488855059.870281, 1488855059.870281, -1.910400, +0.182129, -0.451172, -11.205088, -131.662506, +67.908104 
1488855059.874211, 1488855059.874211, -1.910400, +0.182129, -0.451172, -8.565317, -87.442528, +80.908592 
1488855059.877958, 1488855059.877958, -1.910400, +0.182129, -0.451172, -8.565317, -87.442528, +80.908592 
1488855059.881716, 1488855059.881716, -1.910400, +0.182129, -0.451172, -8.565317, -87.442528, +80.908592 
1488855059.885606, 1488855059.885606, -1.910400, +0.182129, -0.451172, -21.214853, -113.229881, +68.808372 
1488855059.889546, 1488855059.889546, -1.910400, -0.629517, +0.083252, -21.214853, -113.229881, +68.808372 
1488855059.894288, 1488855059.894288, -1.296997, -0.629517, +0.083252, -26.204477, -126.367699, +56.738674 
1488855059.898029, 1488855059.898029, -1.296997, -0.629517, +0.083252, -26.204477, -126.367699, +56.738674 
1488855059.901777, 1488855059.901777, -1.296997, -0.629517, +0.083252, -26.204477, -126.367699, +56.738674 
1488855059.905609, 1488855059.905609, -1.296997, -0.629517, +0.083252, -2.950083, -96.231590, +76.620872 
1488855059.909348, 1488855059.909348, -1.296997, -0.089111, +0.007568, -2.950083, -96.231590, +76.620872 
1488855059.913085, 1488855059.913085, -0.895508, -0.089111, +0.007568, -2.950083, -96.231590, +76.620872 
1488855059.916822, 1488855059.916822, -0.895508, -0.089111, +0.007568, +16.611685, -79.355370, +87.683495 
1488855059.920563, 1488855059.920563, -0.895508, -0.089111, +0.007568, +16.611685, -79.355370, +87.683495 
1488855059.924319, 1488855059.924319, -0.895508, -0.089111, +0.007568, +16.611685, -79.355370, +87.683495 
1488855059.928069, 1488855059.928069, -0.895508, -0.089111, +0.007568, +31.046499, -67.697655, +76.758202 
1488855059.931816, 1488855059.931816, -0.582520, +0.294678, -0.227417, +31.046499, -67.697655, +76.758202 
1488855059.935610, 1488855059.935610, -0.582520, +0.294678, -0.227417, +31.046499, -67.697655, +76.758202 
1488855059.939475, 1488855059.939475, -0.582520, +0.294678, -0.227417, +39.347282, -49.646511, +56.250393 
1488855059.943397, 1488855059.943397, -0.582520, +0.294678, -0.227417, +39.347282, -49.646511, +56.250393 
1488855059.947145, 1488855059.947145, -0.582520, +0.294678, -0.227417, +39.347282, -49.646511, +56.250393 
1488855059.950892, 1488855059.950892, -1.069946, +0.434692, -0.229004, +25.812735, -40.475979, +44.394314 
1488855059.954829, 1488855059.954829, -1.069946, +0.434692, -0.229004, +25.812735, -40.475979, +44.394314 
1488855059.958773, 1488855059.958773, -1.069946, +0.434692, -0.229004, +25.812735, -44.382229, +40.518581 
1488855059.962716, 1488855059.962716, -1.069946, +0.434692, -0.229004, +27.689566, -44.855251, +40.518581 
1488855059.966706, 1488855059.966706, -1.069946, +0.434692, -0.229004, +27.689566, -44.855251, +40.518581 
1488855059.970650, 1488855059.970650, -1.269775, +0.180298, -0.397583, +41.956535, -50.439968, +35.223782 
1488855059.974532, 1488855059.974532, -1.269775, +0.180298, -0.397583, +41.956535, -50.439968, +35.223782 
1488855059.978283, 1488855059.978283, -1.269775, +0.180298, -0.397583, +41.956535, -50.439968, +35.223782 
1488855059.982061, 1488855059.982061, -1.269775, +0.180298, -0.397583, +44.413200, -50.378933, +33.438503 
1488855059.985995, 1488855059.985995, -1.269775, +0.180298, -0.397583, +44.413200, -50.378933, +33.438503 
1488855059.990126, 1488855059.990126, -0.841675, +0.261597, -0.482422, +44.413200, -50.378933, +33.438503 
1488855059.993910, 1488855059.993910, -0.841675, +0.261597, -0.482422, +32.465569, -37.378445, +31.378567 
1488855059.997656, 1488855059.997656, -0.841675, +0.261597, -0.482422, +32.465569, -37.378445, +31.378567 
1488855060.001399, 1488855060.001399, -0.841675, +0.261597, -0.482422, +32.465569, -37.378445, +31.378567 
1488855060.005197, 1488855060.005197, -0.841675, +0.261597, -0.482422, +27.033438, -26.819361, +28.418362 
1488855060.008947, 1488855060.008947, -0.966675, +0.255493, -0.397583, +27.033438, -26.819361, +28.418362 
1488855060.012689, 1488855060.012689, -0.944458, +0.255493, -0.397583, +27.033438, -26.819361, +28.418362 
1488855060.016436, 1488855060.016436, -0.944458, +0.255493, -0.397583, +21.189322, -24.957788, +22.711575 
1488855060.020180, 1488855060.020180, -0.944458, +0.255493, -0.397583, +21.189322, -24.957788, +22.711575 
1488855060.023930, 1488855060.023930, -0.944458, +0.255493, -0.397583, +21.189322, -24.957788, +16.287624 
1488855060.027681, 1488855060.027681, -0.944458, +0.255493, -0.397583, +12.323965, -27.261866, +16.287624 
1488855060.031425, 1488855060.031425, -1.208374, +0.082397, -0.123657, +12.323965, -27.261866, +16.287624 
1488855060.035349, 1488855060.035349, -1.208374, +0.082397, -0.123657, +12.323965, -28.772486, +11.420071 
1488855060.039096, 1488855060.039096, -1.208374, +0.082397, -0.123657, +10.645498, -28.772486, +11.420071 
1488855060.042856, 1488855060.042856, -1.208374, +0.082397, -0.123657, +10.645498, -28.772486, +11.420071 
1488855060.046865, 1488855060.046865, -1.208374, +0.082397, -0.123657, +10.508169, -24.667871, +7.590114 
1488855060.050786, 1488855060.050786, -1.224609, -0.083984, -0.235962, +10.508169, -24.667871, +7.590114 
1488855060.054710, 1488855060.054710, -1.224609, -0.083984, -0.235962, +10.508169, -24.667871, +7.590114 
1488855060.058594, 1488855060.058594, -1.224609, -0.083984, -0.235962, +5.869497, -20.288599, +8.520901 
1488855060.062597, 1488855060.062597, -1.224609, -0.083984, -0.235962, +5.869497, -20.288599, +8.520901 
1488855060.066553, 1488855060.066553, -1.224609, -0.083984, -0.235962, +5.869497, -20.288599, +8.520901 
1488855060.070494, 1488855060.070494, -1.133301, -0.066772, -0.212280, +6.037344, -17.648829, +11.099636 
1488855060.074414, 1488855060.074414, -1.133301, -0.066772, -0.212280, +6.037344, -17.648829, +11.099636 
1488855060.078158, 1488855060.078158, -1.133301, -0.066772, -0.212280, +6.037344, -17.648829, +11.099636 
1488855060.081908, 1488855060.081908, -1.133301, -0.066772, -0.212280, +11.225332, -12.277735, +11.374294 
1488855060.085972, 1488855060.085972, -1.133301, -0.066772, -0.212280, +11.225332, -12.277735, +11.374294 
1488855060.089913, 1488855060.089913, -1.059082, +0.027222, -0.223511, +11.225332, -7.776392, +15.494167 
1488855060.093898, 1488855060.093898, -1.059082, +0.027222, -0.223511, +14.246572, -7.776392, +15.494167 
1488855060.097844, 1488855060.097844, -1.059082, +0.027222, -0.223511, +14.246572, -7.776392, +15.494167 
1488855060.101999, 1488855060.101999, -1.059082, +0.027222, -0.223511, +21.891226, -4.663599, +16.806423 
1488855060.106084, 1488855060.106084, -1.059082, +0.027222, -0.223511, +21.891226, -4.663599, +16.806423 
1488855060.110028, 1488855060.110028, -1.113281, +0.255859, -0.402954, +21.891226, -4.663599, +16.806423 
1488855060.113980, 1488855060.113980, -1.113281, +0.255859, -0.402954, +25.522818, -5.411280, +16.714870 
1488855060.117931, 1488855060.117931, -1.113281, +0.255859, -0.402954, +25.522818, -5.411280, +16.714870 
1488855060.121872, 1488855060.121872, -1.113281, +0.255859, -0.402954, +25.522818, -5.411280, +13.068020 
1488855060.125679, 1488855060.125679, -1.113281, +0.255859, -0.402954, +21.677603, -13.300074, +13.068020 
1488855060.129430, 1488855060.129430, -1.077881, +0.204468, -0.519775, +21.677603, -13.300074, +13.068020 
1488855060.133247, 1488855060.133247, -1.077881, +0.204468, -0.519775, +21.677603, -22.195948, +9.024441 
1488855060.137005, 1488855060.137005, -1.077881, +0.204468, -0.519775, +12.995352, -22.195948, +9.024441 
1488855060.140748, 1488855060.140748, -1.077881, +0.204468, -0.519775, +12.995352, -22.195948, +9.024441 
1488855060.144507, 1488855060.144507, -1.077881, +0.204468, -0.519775, +3.107656, -33.960476, +10.290920 
1488855060.148257, 1488855060.148257, -0.897949, -0.002197, -0.623779, +3.107656, -33.960476, +10.290920 
1488855060.152009, 1488855060.152009, -0.897949, -0.002197, -0.623779, +3.107656, -33.960476, +10.290920 
1488855060.155913, 1488855060.155913, -0.897949, -0.002197, -0.623779, -5.528818, -42.932644, +14.166653 
1488855060.159665, 1488855060.159665, -0.897949, -0.002197, -0.623779, -5.528818, -42.932644, +14.166653 
1488855060.163565, 1488855060.163565, -0.897949, -0.002197, -0.623779, -5.528818, -42.932644, +14.166653 
1488855060.167317, 1488855060.167317, -0.897949, -0.021484, -0.447144, -6.764780, -49.524441, +22.314846 
1488855060.171067, 1488855060.171067, -1.057495, -0.021484, -0.447144, -6.764780, -49.524441, +22.314846 
1488855060.174930, 1488855060.174930, -1.057495, -0.021484, -0.447144, -6.764780, -49.524441, +22.314846 
1488855060.178880, 1488855060.178880, -1.057495, -0.021484, -0.447144, -0.890146, -52.454128, +28.021633 
1488855060.182822, 1488855060.182822, -1.057495, -0.021484, -0.447144, -0.890146, -52.454128, +28.021633 
1488855060.186777, 1488855060.186777, -1.057495, -0.021484, -0.314453, -0.890146, -52.454128, +28.021633 
1488855060.190851, 1488855060.190851, -1.191650, +0.068237, -0.314453, +2.787222, -54.681911, +31.836330 
1488855060.194830, 1488855060.194830, -1.191650, +0.068237, -0.314453, +2.787222, -54.681911, +31.836330 
1488855060.198752, 1488855060.198752, -1.191650, +0.068237, -0.314453, +3.367056, -55.399075, +32.080471 
1488855060.202714, 1488855060.202714, -1.191650, +0.068237, -0.314453, +3.367056, -55.399075, +32.080471 
1488855060.206533, 1488855060.206533, -1.191650, +0.068237, -0.238892, +3.367056, -55.399075, +32.080471 
1488855060.210271, 1488855060.210271, -1.118530, +0.161255, -0.238892, -0.935923, -56.665554, +30.844509 
1488855060.214064, 1488855060.214064, -1.118530, +0.161255, -0.238892, -0.935923, -56.665554, +30.844509 
1488855060.217793, 1488855060.217793, -1.118530, +0.161255, -0.238892, -0.935923, -56.665554, +30.844509 
1488855060.221532, 1488855060.221532, -1.118530, +0.161255, -0.238892, -3.301035, -54.330959, +27.823269 
1488855060.225276, 1488855060.225276, -1.118530, +0.161255, -0.238892, -3.301035, -54.330959, +27.823269 
1488855060.229011, 1488855060.229011, -1.057739, +0.193726, -0.211670, -3.301035, -54.330959, +27.823269 
1488855060.232748, 1488855060.232748, -1.057739, +0.193726, -0.211670, -5.208384, -52.866116, +26.449978 
1488855060.236635, 1488855060.236635, -1.057739, +0.193726, -0.211670, -5.208384, -52.866116, +26.449978 
1488855060.240374, 1488855060.240374, -1.057739, +0.193726, -0.211670, -5.208384, -52.866116, +26.449978 
1488855060.244191, 1488855060.244191, -1.057739, +0.193726, -0.211670, -2.477060, -49.204006, +26.129543 
1488855060.247939, 1488855060.247939, -1.088867, +0.181885, -0.234863, -2.477060, -49.204006, +26.129543 
1488855060.251690, 1488855060.251690, -1.088867, +0.181885, -0.234863, -2.477060, -49.204006, +26.129543 
1488855060.255650, 1488855060.255650, -1.088867, +0.181885, -0.234863, +0.940909, -46.869411, +27.029812 
1488855060.259587, 1488855060.259587, -1.088867, +0.181885, -0.234863, +0.940909, -46.869411, +27.029812 
1488855060.263515, 1488855060.263515, -1.088867, +0.181885, -0.234863, +0.940909, -46.869411, +28.036892 
1488855060.267268, 1488855060.267268, -1.103394, +0.192383, -0.156982, +2.421011, -47.144070, +28.036892 
1488855060.271018, 1488855060.271018, -1.103394, +0.192383, -0.156982, +2.421011, -47.144070, +28.036892 
1488855060.274900, 1488855060.274900, -1.103394, +0.192383, -0.156982, +2.421011, -47.113552, +27.228176 
1488855060.278842, 1488855060.278842, -1.103394, +0.192383, -0.156982, +0.391592, -47.113552, +27.228176 
1488855060.282783, 1488855060.282783, -1.103394, +0.192383, -0.156982, +0.391592, -47.113552, +27.228176 
1488855060.286735, 1488855060.286735, -1.066406, +0.224731, -0.168579, -1.500498, -46.213284, +26.068508 
1488855060.290674, 1488855060.290674, -1.066406, +0.224731, -0.168579, -1.500498, -46.213284, +26.068508 
1488855060.294626, 1488855060.294626, -1.066406, +0.224731, -0.168579, -1.500498, -46.213284, +26.068508 
1488855060.298566, 1488855060.298566, -1.066406, +0.224731, -0.168579, -2.126108, -46.671047, +26.282131 
1488855060.302510, 1488855060.302510, -1.066406, +0.224731, -0.168579, -2.126108, -46.671047, +26.282131 
1488855060.306490, 1488855060.306490, -1.066406, +0.258179, -0.231689, -2.126108, -46.671047, +26.282131 
1488855060.310550, 1488855060.310550, -1.092407, +0.258179, -0.231689, -4.796396, -47.388210, +25.564968 
1488855060.314815, 1488855060.314815, -1.092407, +0.258179, -0.231689, -4.796396, -47.388210, +25.564968 
1488855060.318554, 1488855060.318554, -1.092407, +0.258179, -0.231689, -8.702646, -47.968044, +25.046169 
1488855060.322290, 1488855060.322290, -1.092407, +0.258179, -0.231689, -8.580576, -47.968044, +25.046169 
1488855060.326119, 1488855060.326119, -1.092407, +0.247925, -0.241821, -8.580576, -47.968044, +25.046169 
1488855060.329858, 1488855060.329858, -1.169800, +0.247925, -0.241821, -12.227427, -48.975124, +24.939358 
1488855060.333660, 1488855060.333660, -1.169800, +0.247925, -0.241821, -12.227427, -48.975124, +24.939358 
1488855060.337401, 1488855060.337401, -1.169800, +0.247925, -0.241821, -12.227427, -48.975124, +24.939358 
1488855060.341148, 1488855060.341148, -1.169800, +0.247925, -0.241821, -14.821421, -51.935329, +26.037991 
1488855060.344900, 1488855060.344900, -1.169800, +0.247925, -0.241821, -14.821421, -51.935329, +26.037991 
1488855060.348640, 1488855060.348640, -1.173706, +0.201050, -0.316528, -14.821421, -51.935329, +26.037991 
1488855060.352383, 1488855060.352383, -1.173706, +0.201050, -0.316528, -17.445932, -55.429592, +26.526272 
1488855060.356188, 1488855060.356188, -1.173706, +0.201050, -0.316528, -17.445932, -55.429592, +26.526272 
1488855060.359926, 1488855060.359926, -1.173706, +0.201050, -0.316528, -17.445932, -55.429592, +26.526272 
1488855060.363797, 1488855060.363797, -1.173706, +0.201050, -0.316528, -16.057383, -57.733669, +27.594387 
1488855060.367543, 1488855060.367543, -1.185913, +0.248779, -0.293823, -16.057383, -57.733669, +27.594387 
1488855060.371283, 1488855060.371283, -1.185913, +0.248779, -0.293823, -16.057383, -57.733669, +27.594387 
1488855060.375163, 1488855060.375163, -1.185913, +0.248779, -0.293823, -13.936411, -61.685696, +29.135525 
1488855060.378897, 1488855060.378897, -1.185913, +0.248779, -0.293823, -13.936411, -61.685696, +29.135525 
1488855060.382636, 1488855060.382636, -1.185913, +0.248779, -0.293823, -13.936411, -61.685696, +29.135525 
1488855060.386614, 1488855060.386614, -1.211304, +0.228394, -0.268555, -15.523325, -66.354881, +30.264675 
1488855060.390358, 1488855060.390358, -1.211304, +0.228394, -0.268555, -15.523325, -66.354881, +30.264675 
1488855060.394167, 1488855060.394167, -1.211304, +0.228394, -0.268555, -15.523325, -66.354881, +31.439602 
1488855060.398090, 1488855060.398090, -1.211304, +0.228394, -0.268555, -15.340219, -69.788109, +31.439602 
1488855060.402011, 1488855060.402011, -1.211304, +0.228394, -0.268555, -15.340219, -69.788109, +31.439602 
1488855060.405952, 1488855060.405952, -1.271240, +0.271118, -0.179443, -14.317881, -73.740135, +31.515896 
1488855060.409885, 1488855060.409885, -1.271240, +0.271118, -0.179443, -14.317881, -73.740135, +31.515896 
1488855060.413828, 1488855060.413828, -1.271240, +0.271118, -0.179443, -14.317881, -73.740135, +31.515896 
1488855060.417758, 1488855060.417758, -1.271240, +0.271118, -0.179443, -14.638315, -77.448021, +29.990017 
1488855060.421679, 1488855060.421679, -1.271240, +0.271118, -0.179443, -14.638315, -77.448021, +29.990017 
1488855060.425678, 1488855060.425678, -1.287109, +0.376831, -0.211060, -14.638315, -77.448021, +29.990017 
1488855060.429789, 1488855060.429789, -1.287109, +0.376831, -0.211060, -17.094980, -79.935204, +29.623806 
1488855060.433956, 1488855060.433956, -1.287109, +0.376831, -0.211060, -17.094980, -79.935204, +29.623806 
1488855060.437888, 1488855060.437888, -1.287109, +0.376831, -0.211060, -17.094980, -79.935204, +28.540432 
1488855060.441804, 1488855060.441804, -1.287109, +0.376831, -0.211060, -22.176157, -81.766258, +28.540432 
1488855060.445740, 1488855060.445740, -1.362915, +0.265747, -0.193726, -22.176157, -81.766258, +28.540432 
1488855060.449661, 1488855060.449661, -1.362915, +0.265747, -0.193726, -28.523813, -83.276878, +26.190578 
1488855060.453591, 1488855060.453591, -1.362915, +0.265747, -0.193726, -28.523813, -83.276878, +26.190578 
1488855060.457517, 1488855060.457517, -1.362915, +0.265747, -0.193726, -28.523813, -83.276878, +26.190578 
1488855060.461444, 1488855060.461444, -1.362915, +0.265747, -0.193726, -31.499277, -86.008202, +26.190578 
1488855060.465282, 1488855060.465282, -1.496460, +0.285522, -0.259277, -31.499277, -86.008202, +26.190578 
1488855060.469054, 1488855060.469054, -1.496460, +0.285522, -0.259277, -31.499277, -86.008202, +26.190578 
1488855060.473027, 1488855060.473027, -1.496460, +0.285522, -0.259277, -31.941782, -89.929710, +27.396023 
1488855060.476784, 1488855060.476784, -1.496460, +0.285522, -0.259277, -31.941782, -89.929710, +27.396023 
1488855060.480531, 1488855060.480531, -1.496460, +0.285522, -0.259277, -31.941782, -89.929710, +27.396023 
1488855060.484374, 1488855060.484374, -1.496460, +0.285522, -0.346924, -35.512337, -94.308983, +29.516994 
1488855060.488121, 1488855060.488121, -1.495117, +0.266235, -0.346924, -35.512337, -94.308983, +29.516994 
1488855060.491870, 1488855060.491870, -1.495117, +0.266235, -0.346924, -35.512337, -94.308983, +31.439602 
1488855060.495851, 1488855060.495851, -1.495117, +0.266235, -0.346924, -40.059456, -100.107323, +31.439602 
1488855060.499788, 1488855060.499788, -1.495117, +0.266235, -0.346924, -40.059456, -100.107323, +31.439602 
1488855060.503707, 1488855060.503707, -1.495117, +0.266235, -0.346924, -42.363533, -109.094749, +34.674465 
1488855060.507462, 1488855060.507462, -1.492554, +0.159180, -0.388916, -42.363533, -109.094749, +34.674465 
1488855060.511203, 1488855060.511203, -1.492554, +0.159180, -0.388916, -42.363533, -109.094749, +34.674465 
1488855060.515099, 1488855060.515099, -1.492554, +0.159180, -0.388916, -41.203865, -116.357933, +37.833035 
1488855060.519044, 1488855060.519044, -1.492554, +0.159180, -0.388916, -41.203865, -116.357933, +37.833035 
1488855060.522991, 1488855060.522991, -1.492554, +0.159180, -0.388916, -41.203865, -116.357933, +37.833035 
1488855060.526742, 1488855060.526742, -1.576416, +0.222900, -0.453613, -40.471443, -122.964989, +43.402493 
1488855060.530485, 1488855060.530485, -1.576416, +0.222900, -0.453613, -40.471443, -122.964989, +43.402493 
1488855060.534468, 1488855060.534468, -1.576416, +0.222900, -0.453613, -40.471443, -122.964989, +43.402493 
1488855060.538408, 1488855060.538408, -1.576416, +0.222900, -0.453613, -45.247444, -129.678864, +46.973049 
1488855060.542348, 1488855060.542348, -1.576416, +0.222900, -0.453613, -45.247444, -129.678864, +46.973049 
1488855060.546302, 1488855060.546302, -1.744995, +0.185791, -0.401733, -45.247444, -129.678864, +49.002468 
1488855060.550388, 1488855060.550388, -1.744995, +0.185791, -0.401733, -53.517708, -137.537140, +49.002468 
1488855060.554395, 1488855060.554395, -1.744995, +0.185791, -0.401733, -53.517708, -137.537140, +49.002468 
1488855060.558147, 1488855060.558147, -1.744995, +0.185791, -0.401733, -61.040291, -140.878815, +54.449856 
1488855060.561899, 1488855060.561899, -1.744995, +0.185791, -0.401733, -61.040291, -140.878815, +54.449856 
1488855060.565799, 1488855060.565799, -1.564697, +0.182495, -0.726440, -61.040291, -140.878815, +54.449856 
1488855060.569741, 1488855060.569741, -1.564697, +0.182495, -0.726440, -69.676765, -138.666290, +60.812771 
1488855060.573696, 1488855060.573696, -1.564697, +0.182495, -0.726440, -69.676765, -138.666290, +60.812771 
1488855060.577637, 1488855060.577637, -1.564697, +0.182495, -0.726440, -69.676765, -138.666290, +60.812771 
1488855060.581583, 1488855060.581583, -1.564697, +0.182495, -0.726440, -77.718147, -135.202545, +67.221458 
1488855060.585420, 1488855060.585420, -1.529419, +0.194824, -0.667236, -77.718147, -135.202545, +67.221458 
1488855060.589170, 1488855060.589170, -1.529419, +0.194824, -0.667236, -77.718147, -135.202545, +67.221458 
1488855060.592917, 1488855060.592917, -1.529419, +0.194824, -0.667236, -86.140999, -132.684845, +70.578392 
1488855060.596725, 1488855060.596725, -1.529419, +0.194824, -0.667236, -86.140999, -132.684845, +70.578392 
1488855060.600476, 1488855060.600476, -1.529419, +0.194824, -0.667236, -86.140999, -132.684845, +70.578392 
1488855060.604372, 1488855060.604372, -1.484009, -0.110840, -0.534302, -101.491341, -133.203644, +68.518456 
1488855060.608124, 1488855060.608124, -1.484009, -0.110840, -0.534302, -101.491341, -133.203644, +68.518456 
1488855060.611883, 1488855060.611883, -1.484009, -0.110840, -0.534302, -124.928841, -133.554596, +59.454739 
1488855060.617159, 1488855060.617159, -1.484009, -0.110840, -0.534302, -122.945198, -133.554596, +59.454739 
1488855060.621085, 1488855060.621085, -1.484009, -0.110840, -0.534302, -122.945198, -133.554596, +59.454739 
1488855060.625009, 1488855060.625009, -1.496826, +0.144897, -0.273193, -147.328751, -135.858673, +48.636257 
1488855060.628925, 1488855060.628925, -1.496826, +0.144897, -0.273193, -147.328751, -135.858673, +48.636257 
1488855060.632843, 1488855060.632843, -1.496826, +0.144897, -0.273193, -147.328751, -135.858673, +48.636257 
1488855060.636774, 1488855060.636774, -1.496826, +0.144897, -0.273193, -167.012589, -137.689728, +41.617214 
1488855060.640692, 1488855060.640692, -1.496826, +0.144897, -0.273193, -167.012589, -137.689728, +41.617214 
1488855060.644612, 1488855060.644612, -1.469604, +0.071289, -0.069092, -167.012589, -133.783478, +40.869534 
1488855060.648531, 1488855060.648531, -1.469604, +0.071289, -0.069092, -172.994034, -134.271759, +40.869534 
1488855060.652455, 1488855060.652455, -1.469604, +0.071289, -0.069092, -172.994034, -134.271759, +40.869534 
1488855060.656394, 1488855060.656394, -1.469604, +0.071289, -0.069092, -163.548843, -128.732819, +43.829739 
1488855060.660311, 1488855060.660311, -1.469604, +0.071289, -0.069092, -163.548843, -128.732819, +43.829739 
1488855060.664295, 1488855060.664295, -1.208618, +0.263672, +0.009033, -163.548843, -128.732819, +43.829739 
1488855060.668239, 1488855060.668239, -1.208618, +0.263672, +0.009033, -132.619278, -119.836937, +44.623196 
1488855060.672426, 1488855060.672426, -1.208618, +0.263672, +0.009033, -132.619278, -119.836937, +44.623196 
1488855060.676698, 1488855060.676698, -1.208618, +0.263672, +0.009033, -132.619278, -119.836937, +48.529446 
1488855060.680784, 1488855060.680784, -1.208618, +0.263672, +0.009033, -90.398201, -107.431541, +48.117458 
1488855060.684749, 1488855060.684749, -0.641235, +0.359009, -0.045288, -90.398201, -107.431541, +48.117458 
1488855060.688692, 1488855060.688692, -0.641235, +0.359009, -0.045288, -71.248421, -90.524803, +50.116360 
1488855060.692637, 1488855060.692637, -0.641235, +0.359009, -0.045288, -71.248421, -90.524803, +50.116360 
1488855060.696594, 1488855060.696594, -0.641235, +0.359009, -0.045288, -71.248421, -90.524803, +50.116360 
1488855060.700538, 1488855060.700538, -0.641235, +0.359009, -0.045288, -54.814705, -76.334129, +46.042263 
1488855060.704416, 1488855060.704416, -0.545532, -0.122070, +0.143677, -54.814705, -76.334129, +46.042263 
1488855060.708167, 1488855060.708167, -0.545532, -0.122070, +0.143677, -54.814705, -76.334129, +46.042263 
1488855060.712089, 1488855060.712089, -0.545532, -0.122070, +0.143677, -38.991341, -58.130398, +30.279934 
1488855060.716025, 1488855060.716025, -0.545532, -0.122070, +0.143677, -38.991341, -58.130398, +30.279934 
1488855060.719771, 1488855060.719771, -0.545532, -0.122070, +0.143677, -38.991341, -58.130398, +30.279934 
1488855060.723521, 1488855060.723521, -0.421631, -0.407837, -0.114746, -25.945078, -28.955591, +10.809719 
1488855060.727269, 1488855060.727269, -0.421631, -0.407837, -0.114746, -25.945078, -28.955591, +10.809719 
1488855060.731015, 1488855060.731015, -0.421631, -0.407837, -0.114746, -25.945078, -28.955591, +10.809719 
1488855060.734812, 1488855060.734812, -0.421631, -0.407837, -0.114746, -1.164804, -8.951319, +5.102931 
1488855060.738553, 1488855060.738553, -0.421631, -0.407837, -0.114746, -1.164804, -8.951319, +5.102931 
1488855060.742286, 1488855060.742286, -0.421631, -0.407837, -0.011597, -1.164804, -8.951319, +1.395046 
1488855060.746061, 1488855060.746061, -0.333618, -0.300171, -0.011597, +25.965322, +9.862768, +1.395046 
1488855060.749791, 1488855060.749791, -0.333618, -0.300171, -0.011597, +25.965322, +9.862768, +1.395046 
1488855060.753626, 1488855060.753626, -0.333618, -0.300171, -0.011597, +25.965322, +29.394018, -4.708470 
1488855060.757376, 1488855060.757376, -0.333618, -0.300171, -0.011597, +44.764153, +29.928076, -4.708470 
1488855060.761121, 1488855060.761121, -0.333618, -0.300171, -0.011597, +44.764153, +29.928076, -4.708470 
1488855060.765090, 1488855060.765090, -0.220459, -0.119263, -0.076416, +59.321037, +52.648411, -9.621799 
1488855060.769032, 1488855060.769032, -0.220459, -0.119263, -0.076416, +59.321037, +52.648411, -9.621799 
1488855060.772987, 1488855060.772987, -0.220459, -0.119263, -0.076416, +59.321037, +52.648411, -9.621799 
1488855060.776934, 1488855060.776934, -0.220459, -0.119263, -0.076416, +74.015251, +76.665749, -13.482273 
1488855060.780883, 1488855060.780883, -0.220459, -0.119263, -0.076416, +74.015251, +76.665749, -13.482273 
1488855060.784838, 1488855060.784838, -0.229858, +0.005493, -0.052002, +74.015251, +76.665749, -13.482273 
1488855060.788792, 1488855060.788792, -0.229858, +0.005493, -0.052002, +84.177605, +98.897804, -20.989597 
1488855060.792741, 1488855060.792741, -0.229858, +0.005493, -0.052002, +84.177605, +98.897804, -20.989597 
1488855060.796547, 1488855060.796547, -0.229858, +0.005493, -0.052002, +84.177605, +98.897804, -20.989597 
1488855060.800302, 1488855060.800302, -0.229858, +0.005493, -0.052002, +86.985222, +118.657936, -32.082737 
1488855060.804131, 1488855060.804131, -0.302856, +0.123291, -0.046997, +86.985222, +118.657936, -32.082737 
1488855060.808055, 1488855060.808055, -0.302856, +0.123291, -0.046997, +86.985222, +137.288910, -44.808567 
1488855060.811982, 1488855060.811982, -0.302856, +0.123291, -0.046997, +84.452263, +137.288910, -44.808567 
1488855060.815926, 1488855060.815926, -0.302856, +0.123291, -0.046997, +84.452263, +137.288910, -44.808567 
1488855060.819943, 1488855060.819943, -0.302856, +0.123291, -0.046997, +79.737297, +155.950409, -58.648289 
1488855060.824289, 1488855060.824289, -0.371216, +0.131836, -0.197144, +79.737297, +155.950409, -58.648289 
1488855060.828341, 1488855060.828341, -0.371216, +0.131836, -0.197144, +79.737297, +155.950409, -58.648289 
1488855060.832395, 1488855060.832395, -0.371216, +0.131836, -0.197144, +73.465935, +173.269135, -72.671120 
1488855060.836352, 1488855060.836352, -0.371216, +0.131836, -0.197144, +73.465935, +173.269135, -72.671120 
1488855060.840297, 1488855060.840297, -0.371216, +0.131836, -0.197144, +73.465935, +173.269135, -86.175148 
1488855060.844291, 1488855060.844291, -0.498291, +0.123535, -0.262085, +66.538445, +187.856537, -86.175148 
1488855060.848234, 1488855060.848234, -0.498291, +0.123535, -0.262085, +66.538445, +187.856537, -86.175148 
1488855060.852182, 1488855060.852182, -0.498291, +0.123535, -0.262085, +59.610954, +198.934418, -98.565285 
1488855060.855987, 1488855060.855987, -0.498291, +0.123535, -0.262085, +59.610954, +198.934418, -98.565285 
1488855060.859738, 1488855060.859738, -0.498291, +0.123535, -0.262085, +59.610954, +198.934418, -98.565285 
1488855060.863505, 1488855060.863505, -0.661621, +0.169556, -0.246338, +49.997917, +207.937103, -110.528175 
1488855060.867254, 1488855060.867254, -0.661621, +0.169556, -0.246338, +49.997917, +207.937103, -110.528175 
1488855060.871009, 1488855060.871009, -0.661621, +0.169556, -0.246338, +49.997917, +207.937103, -110.528175 
1488855060.874929, 1488855060.874929, -0.661621, +0.169556, -0.246338, +38.447014, +215.841156, -120.751564 
1488855060.878686, 1488855060.878686, -0.661621, +0.169556, -0.246338, +38.447014, +215.841156, -120.751564 
1488855060.882443, 1488855060.882443, -0.859375, +0.178101, -0.236572, +38.447014, +215.841156, -120.751564 
1488855060.886433, 1488855060.886433, -0.859375, +0.178101, -0.236572, +29.093374, +225.728851, -128.548798 
1488855060.890377, 1488855060.890377, -0.859375, +0.178101, -0.236572, +29.093374, +225.728851, -128.548798 
1488855060.894329, 1488855060.894329, -0.859375, +0.178101, -0.236572, +29.093374, +225.728851, -128.548798 
1488855060.898267, 1488855060.898267, -0.859375, +0.178101, -0.236572, +21.448721, +235.784393, -134.942230 
1488855060.902214, 1488855060.902214, -1.081055, +0.119019, -0.229980, +21.448721, +235.784393, -134.942230 
1488855060.906017, 1488855060.906017, -1.081055, +0.119019, -0.229980, +21.448721, +243.596893, -138.360199 
1488855060.909768, 1488855060.909768, -1.081055, +0.119019, -0.229980, +20.838369, +245.366913, -138.360199 
1488855060.913540, 1488855060.913540, -1.081055, +0.119019, -0.229980, +20.838369, +245.366913, -138.360199 
1488855060.917495, 1488855060.917495, -1.081055, +0.119019, -0.229980, +25.812735, +254.888397, -138.817963 
1488855060.921438, 1488855060.921438, -1.268555, -0.023193, -0.259155, +25.812735, +254.888397, -138.817963 
1488855060.925402, 1488855060.925402, -1.258301, -0.023193, -0.259155, +25.812735, +254.888397, -138.817963 
1488855060.929343, 1488855060.929343, -1.258301, -0.023193, -0.259155, +33.335320, +263.067108, -136.712250 
1488855060.933296, 1488855060.933296, -1.258301, -0.023193, -0.259155, +33.335320, +263.067108, -136.712250 
1488855060.937243, 1488855060.937243, -1.258301, -0.023193, -0.259155, +33.335320, +263.067108, -136.712250 
1488855060.941341, 1488855060.941341, -1.539551, -0.044922, -0.309326, +43.650261, +269.445282, -130.685028 
1488855060.945404, 1488855060.945404, -1.549927, -0.044922, -0.309326, +43.650261, +269.445282, -130.685028 
1488855060.949351, 1488855060.949351, -1.549927, -0.044922, -0.309326, +43.650261, +277.257782, -123.192970 
1488855060.953309, 1488855060.953309, -1.549927, -0.044922, -0.309326, +56.833855, +274.953705, -123.192970 
1488855060.957052, 1488855060.957052, -1.549927, -0.044922, -0.309326, +56.833855, +274.953705, -123.192970 
1488855060.960810, 1488855060.960810, -1.549927, +0.080078, -0.447632, +72.458855, +278.920990, -115.868752 
1488855060.964715, 1488855060.964715, -1.898560, +0.069702, -0.447632, +71.283928, +278.920990, -115.868752 
1488855060.968656, 1488855060.968656, -1.898560, +0.069702, -0.447632, +71.283928, +278.920990, -115.868752 
1488855060.972608, 1488855060.972608, -1.898560, +0.069702, -0.447632, +85.093132, +281.713348, -109.170143 
1488855060.976394, 1488855060.976394, -1.898560, +0.069702, -0.447632, +85.093132, +281.713348, -109.170143 
1488855060.980248, 1488855060.980248, -1.898560, +0.069702, -0.578247, +85.093132, +281.713348, -109.170143 
1488855060.984049, 1488855060.984049, -2.167114, +0.144287, -0.578247, +100.245110, +282.888275, -102.425758 
1488855060.987807, 1488855060.987807, -2.167114, +0.144287, -0.578247, +100.245110, +282.888275, -102.425758 
1488855060.991567, 1488855060.991567, -2.167114, +0.144287, -0.578247, +100.245110, +282.888275, -102.425758 
1488855060.995494, 1488855060.995494, -2.167114, +0.144287, -0.578247, +116.465202, +280.584198, -95.589821 
1488855060.999244, 1488855060.999244, -2.167114, +0.144287, -0.578247, +116.465202, +280.584198, -95.589821 
1488855061.003121, 1488855061.003121, -2.331543, +0.267456, -0.428345, +116.465202, +280.584198, -95.589821 
1488855061.007071, 1488855061.007071, -2.331543, +0.267456, -0.428345, +137.110336, +271.673065, -87.350075 
1488855061.011020, 1488855061.011020, -2.331543, +0.267456, -0.428345, +137.110336, +271.673065, -87.350075 
1488855061.014993, 1488855061.014993, -2.331543, +0.267456, -0.428345, +137.110336, +256.185394, -77.935402 
1488855061.018940, 1488855061.018940, -2.331543, +0.267456, -0.428345, +162.226303, +256.185394, -77.935402 
1488855061.022886, 1488855061.022886, -2.342285, +0.430054, -0.197632, +162.226303, +256.185394, -77.935402 
1488855061.026839, 1488855061.026839, -2.342285, +0.430054, -0.197632, +184.305771, +236.760956, -65.926735 
1488855061.030785, 1488855061.030785, -2.342285, +0.430054, -0.197632, +184.305771, +236.760956, -65.926735 
1488855061.034668, 1488855061.034668, -2.342285, +0.430054, -0.197632, +184.305771, +236.760956, -65.926735 
1488855061.038412, 1488855061.038412, -2.342285, +0.430054, -0.197632, +194.773300, +216.329437, -53.094090 
1488855061.042170, 1488855061.042170, -2.198486, +0.777100, +0.137573, +194.773300, +216.329437, -53.094090 
1488855061.046118, 1488855061.046118, -2.198486, +0.777100, +0.137573, +194.773300, +216.329437, -53.094090 
1488855061.050063, 1488855061.050063, -2.198486, +0.777100, +0.137573, +183.970078, +196.538788, -41.573704 
1488855061.054030, 1488855061.054030, -2.198486, +0.777100, +0.137573, +183.970078, +196.538788, -41.573704 
1488855061.057983, 1488855061.057983, -2.198486, +0.777100, +0.137573, +183.970078, +196.538788, -36.004246 
1488855061.062144, 1488855061.062144, -2.136353, +1.250977, +0.643311, +155.130966, +174.245697, -36.004246 
1488855061.066417, 1488855061.066417, -2.136353, +1.250977, +0.643311, +155.130966, +174.245697, -36.004246 
1488855061.070370, 1488855061.070370, -2.136353, +1.250977, +0.643311, +117.197624, +126.851906, -33.425510 
1488855061.074318, 1488855061.074318, -2.136353, +1.250977, +0.643311, +117.197624, +126.851906, -33.425510 
1488855061.078267, 1488855061.078267, -2.136353, +1.250977, +0.643311, +117.197624, +126.851906, -33.425510 
1488855061.082212, 1488855061.082212, -1.757324, +1.515625, +0.975220, +82.773796, +64.946999, -15.832127 
1488855061.086018, 1488855061.086018, -1.757324, +1.515625, +0.975220, +82.773796, +64.946999, -15.832127 
1488855061.089773, 1488855061.089773, -1.757324, +1.515625, +0.975220, +82.773796, +64.946999, -15.832127 
1488855061.093529, 1488855061.093529, -1.757324, +1.515625, +0.975220, +60.556999, +13.830053, +4.629909 
1488855061.097282, 1488855061.097282, -1.757324, +1.515625, +0.975220, +60.556999, +13.830053, +4.629909 
1488855061.101026, 1488855061.101026, -1.561523, +0.788940, +0.444946, +60.556999, +13.830053, +4.629909 
1488855061.104820, 1488855061.104820, -1.561523, +0.788940, +0.444946, +35.563103, -19.617212, +12.396633 
1488855061.108572, 1488855061.108572, -1.561523, +0.788940, +0.444946, +35.563103, -19.617212, +12.396633 
1488855061.112322, 1488855061.112322, -1.561523, +0.788940, +0.444946, +35.563103, -19.617212, +20.209133 
1488855061.116117, 1488855061.116117, -1.561523, +0.788940, +0.444946, +5.167593, -32.434597, +20.514309 
1488855061.119861, 1488855061.119861, -1.499023, +0.829712, +0.090576, +5.167593, -32.434597, +20.514309 
1488855061.123901, 1488855061.123901, -1.497803, +0.829712, +0.090576, -29.988657, -44.366970, +36.261379 
1488855061.127848, 1488855061.127848, -1.497803, +0.829712, +0.090576, -31.255136, -44.366970, +36.261379 
1488855061.131748, 1488855061.131748, -1.497803, +0.829712, +0.090576, -31.255136, -44.366970, +36.261379 
1488855061.135546, 1488855061.135546, -1.497803, +0.829712, +0.090576, -60.811409, -63.623562, +48.147976 
1488855061.140279, 1488855061.140279, -1.226196, +0.959961, +0.167847, -60.811409, -63.623562, +48.147976 
1488855061.144105, 1488855061.144105, -1.226196, +0.959961, +0.167847, -60.811409, -63.623562, +48.147976 
1488855061.147844, 1488855061.147844, -1.226196, +0.959961, +0.167847, -86.842903, -76.929222, +51.031887 
1488855061.151592, 1488855061.151592, -1.226196, +0.959961, +0.167847, -86.842903, -76.929222, +51.031887 
1488855061.155380, 1488855061.155380, -1.226196, +0.959961, +0.167847, -86.842903, -76.929222, +51.031887 
1488855061.159128, 1488855061.159128, -1.226196, +0.272461, +0.160278, -101.567635, -81.293236, +45.080959 
1488855061.162875, 1488855061.162875, -1.249634, +0.276978, +0.160278, -101.567635, -81.293236, +45.080959 
1488855061.166623, 1488855061.166623, -1.249634, +0.276978, +0.160278, -101.567635, -81.293236, +45.080959 
1488855061.170375, 1488855061.170375, -1.249634, +0.276978, +0.160278, -92.687019, -89.853416, +36.917507 
1488855061.174123, 1488855061.174123, -1.249634, +0.276978, +0.160278, -92.687019, -89.853416, +36.917507 
1488855061.177877, 1488855061.177877, -1.249634, +0.276978, +0.160278, -92.687019, -89.853416, +19.354641 
1488855061.181615, 1488855061.181615, -0.682373, -1.375122, -1.242920, -63.878426, -88.602196, +19.354641 
1488855061.185542, 1488855061.185542, -0.682373, -1.375122, -1.242920, -63.878426, -88.602196, +19.354641 
1488855061.189287, 1488855061.189287, -0.682373, -1.375122, -1.242920, -32.628426, -46.976223, -18.563450 
1488855061.193121, 1488855061.193121, -0.682373, -1.375122, -1.242920, -34.474739, -46.976223, -18.563450 
1488855061.197072, 1488855061.197072, -0.682373, -1.375122, -1.242920, -34.474739, -46.976223, -18.563450 
1488855061.201018, 1488855061.201018, -1.429565, -1.288940, -0.960938, -17.781626, -28.818262, -28.985203 
1488855061.204988, 1488855061.204988, -1.429565, -1.288940, -0.960938, -17.781626, -28.818262, -28.985203 
1488855061.208937, 1488855061.208937, -1.429565, -1.288940, -0.960938, -17.781626, -28.818262, -28.985203 
1488855061.212887, 1488855061.212887, -1.429565, -1.288940, -0.960938, -6.261240, -58.694973, -7.607640 
1488855061.216823, 1488855061.216823, -1.429565, -1.288940, -0.960938, -6.261240, -58.694973, -7.607640 
1488855061.220766, 1488855061.220766, -1.604370, -0.203247, +0.186279, -6.261240, -58.694973, -7.607640 
1488855061.224645, 1488855061.224645, -1.604370, -0.203247, +0.186279, +7.334341, -101.526390, +16.867458 
1488855061.228393, 1488855061.228393, -1.604370, -0.203247, +0.186279, +7.334341, -101.526390, +16.867458 
1488855061.232141, 1488855061.232141, -1.604370, -0.203247, +0.186279, +7.334341, -101.526390, +40.259182 
1488855061.236091, 1488855061.236091, -1.604370, -0.203247, +0.186279, +8.112539, -95.682274, +40.259182 
1488855061.240036, 1488855061.240036, -1.156372, +0.717529, -0.508179, +8.112539, -95.682274, +40.259182 
1488855061.243988, 1488855061.243988, -1.156372, +0.717529, -0.508179, -12.410532, -53.918972, +70.624168 
1488855061.247935, 1488855061.247935, -1.156372, +0.717529, -0.508179, -12.410532, -53.918972, +70.624168 
1488855061.252086, 1488855061.252086, -1.156372, +0.717529, -0.508179, -12.410532, -53.918972, +70.624168 
1488855061.256336, 1488855061.256336, -1.156372, +0.717529, -0.508179, -31.712900, -37.439480, +101.355370 
1488855061.260282, 1488855061.260282, -1.553955, +0.105591, -0.105957, -31.712900, -37.439480, +101.355370 
1488855061.264269, 1488855061.264269, -1.553955, +0.105591, -0.105957, -31.712900, -37.439480, +101.355370 
1488855061.268221, 1488855061.268221, -1.553955, +0.105591, -0.105957, -0.295053, -32.495632, +101.431664 
1488855061.272166, 1488855061.272166, -1.553955, +0.105591, -0.105957, -0.295053, -32.495632, +101.431664 
1488855061.276060, 1488855061.276060, -1.553955, +0.105591, -0.105957, -0.295053, -16.870630, +79.718407 
1488855061.279815, 1488855061.279815, -1.467041, -0.450928, -0.126709, +33.121696, -18.976343, +79.718407 
1488855061.283573, 1488855061.283573, -1.467041, -0.450928, -0.126709, +33.121696, -18.976343, +79.718407 
1488855061.287325, 1488855061.287325, -1.467041, -0.450928, -0.126709, +44.840446, -15.756739, +79.199608 
1488855061.291072, 1488855061.291072, -1.467041, -0.450928, -0.126709, +44.504753, -15.756739, +79.199608 
1488855061.294846, 1488855061.294846, -1.467041, -0.450928, -0.126709, +44.504753, -15.756739, +79.199608 
1488855061.298603, 1488855061.298603, -1.115601, -0.021240, -0.376221, +67.270866, -26.956690, +82.358177 
1488855061.302360, 1488855061.302360, -1.115601, -0.021240, -0.376221, +67.270866, -26.956690, +82.358177 
1488855061.306272, 1488855061.306272, -1.115601, -0.021240, -0.376221, +67.270866, -26.956690, +82.358177 
1488855061.310019, 1488855061.310019, -1.115601, -0.021240, -0.376221, +86.908928, -35.455837, +70.639427 
1488855061.313830, 1488855061.313830, -1.115601, -0.021240, -0.376221, +86.908928, -35.455837, +70.639427 
1488855061.317771, 1488855061.317771, -1.115601, +0.666260, -0.532471, +86.908928, -35.455837, +70.639427 
1488855061.321724, 1488855061.321724, -0.786987, +0.657715, -0.532471, +76.471916, -32.388821, +56.708157 
1488855061.325576, 1488855061.325576, -0.786987, +0.657715, -0.532471, +76.471916, -32.388821, +56.708157 
1488855061.329325, 1488855061.329325, -0.786987, +0.657715, -0.532471, +76.471916, -32.388821, +56.708157 
1488855061.333087, 1488855061.333087, -0.786987, +0.657715, -0.532471, +39.911858, -31.732691, +42.914211 
1488855061.337040, 1488855061.337040, -0.786987, +0.657715, -0.532471, +39.911858, -31.732691, +42.914211 
1488855061.340984, 1488855061.340984, -1.046631, +0.139282, -0.655151, +39.911858, -31.732691, +32.797634 
1488855061.344941, 1488855061.344941, -1.046631, +0.139282, -0.655151, +10.965933, -39.133205, +32.797634 
1488855061.348884, 1488855061.348884, -1.046631, +0.139282, -0.655151, +10.965933, -39.133205, +32.797634 
1488855061.352824, 1488855061.352824, -1.046631, +0.139282, -0.655151, -0.981699, -40.750637, +28.982937 
1488855061.356783, 1488855061.356783, -1.046631, +0.139282, -0.655151, -0.981699, -40.750637, +28.982937 
1488855061.360721, 1488855061.360721, -0.884888, -0.006592, -0.478638, -0.981699, -40.750637, +28.982937 
1488855061.364600, 1488855061.364600, -0.884888, -0.006592, -0.478638, -7.451426, -47.067776, +29.547512 
1488855061.368355, 1488855061.368355, -0.884888, -0.006592, -0.478638, -7.451426, -47.067776, +29.547512 
1488855061.372255, 1488855061.372255, -0.884888, -0.006592, -0.478638, -7.451426, -47.067776, +29.547512 
1488855061.376391, 1488855061.376391, -0.884888, -0.006592, -0.478638, -3.575693, -48.959866, +33.087551 
1488855061.380336, 1488855061.380336, -0.977783, +0.019775, -0.502441, -3.575693, -48.959866, +33.087551 
1488855061.384296, 1488855061.384296, -0.977783, +0.019775, -0.502441, -3.575693, -48.959866, +40.900051 
1488855061.388239, 1488855061.388239, -0.977783, +0.019775, -0.502441, +8.204092, -45.801296, +38.351833 
1488855061.392179, 1488855061.392179, -0.977783, +0.019775, -0.502441, +8.204092, -45.801296, +38.351833 
1488855061.396136, 1488855061.396136, -0.977783, +0.019775, -0.502441, +12.110342, -45.450344, +40.167629 
1488855061.400073, 1488855061.400073, -1.161011, +0.157227, -0.538574, +13.453115, -45.450344, +40.167629 
1488855061.404024, 1488855061.404024, -1.161011, +0.157227, -0.538574, +13.453115, -45.450344, +40.167629 
1488855061.407776, 1488855061.407776, -1.161011, +0.157227, -0.538574, +12.339224, -42.352810, +35.986721 
1488855061.411525, 1488855061.411525, -1.161011, +0.157227, -0.538574, +12.339224, -42.352810, +35.986721 
1488855061.415286, 1488855061.415286, -1.161011, +0.157227, -0.538574, +12.339224, -42.352810, +35.986721 
1488855061.419031, 1488855061.419031, -1.327881, +0.212280, -0.423950, +3.229727, -43.634548, +30.447781 
1488855061.422898, 1488855061.422898, -1.327881, +0.212280, -0.423950, +3.229727, -43.634548, +30.447781 
1488855061.426706, 1488855061.426706, -1.327881, +0.212280, -0.423950, +3.229727, -43.634548, +30.447781 
1488855061.430461, 1488855061.430461, -1.327881, +0.212280, -0.423950, -7.100473, -48.685207, +23.062527 
1488855061.434416, 1488855061.434416, -1.327881, +0.212280, -0.423950, -7.100473, -48.685207, +23.062527 
1488855061.438370, 1488855061.438370, -1.123169, +0.181763, -0.441895, -7.100473, -48.685207, +23.062527 
1488855061.442311, 1488855061.442311, -1.123169, +0.181763, -0.441895, -13.905893, -51.904812, +18.652737 
1488855061.446309, 1488855061.446309, -1.123169, +0.181763, -0.441895, -13.905893, -51.904812, +18.652737 
1488855061.450256, 1488855061.450256, -1.123169, +0.181763, -0.441895, -13.905893, -51.904812, +17.508327 
1488855061.454200, 1488855061.454200, -1.123169, +0.181763, -0.441895, -11.662851, -54.056301, +17.508327 
1488855061.458152, 1488855061.458152, -0.971802, +0.019531, -0.432129, -11.662851, -54.056301, +17.508327 
1488855061.462101, 1488855061.462101, -0.971802, +0.019531, -0.432129, -13.173471, -55.139675, +16.897976 
1488855061.465944, 1488855061.465944, -0.971802, +0.019531, -0.432129, -13.173471, -55.139675, +16.897976 
1488855061.469694, 1488855061.469694, -0.971802, +0.019531, -0.432129, -13.173471, -55.139675, +16.897976 
1488855061.473509, 1488855061.473509, -0.971802, +0.019531, -0.432129, -12.212168, -53.293362, +17.615139 
1488855061.477455, 1488855061.477455, -1.067749, +0.163696, -0.253540, -12.212168, -53.293362, +17.615139 
1488855061.481404, 1488855061.481404, -1.067749, +0.163696, -0.253540, -12.212168, -53.293362, +17.615139 
1488855061.485367, 1488855061.485367, -1.067749, +0.163696, -0.253540, -10.030161, -54.437771, +17.920315 
1488855061.489336, 1488855061.489336, -1.067749, +0.163696, -0.253540, -10.030161, -54.437771, +17.920315 
1488855061.493671, 1488855061.493671, -1.067749, +0.163696, -0.253540, -10.030161, -54.437771, +14.426052 
1488855061.497629, 1488855061.497629, -1.030762, +0.146118, -0.335693, -10.884653, -52.072659, +14.426052 
1488855061.501584, 1488855061.501584, -1.030762, +0.146118, -0.335693, -10.884653, -52.072659, +14.426052 
1488855061.505540, 1488855061.505540, -1.030762, +0.146118, -0.335693, -12.257944, -50.226345, +13.357937 
1488855061.509480, 1488855061.509480, -1.030762, +0.146118, -0.335693, -12.257944, -50.226345, +13.357937 
1488855061.513461, 1488855061.513461, -1.030762, +0.146118, -0.335693, -12.257944, -50.226345, +13.357937 
1488855061.517203, 1488855061.517203, -1.029053, +0.202148, -0.257324, -9.572397, -48.883572, +13.037502 
1488855061.520954, 1488855061.520954, -1.029053, +0.202148, -0.257324, -9.572397, -48.883572, +13.037502 
1488855061.524704, 1488855061.524704, -1.029053, +0.202148, -0.257324, -9.572397, -48.883572, +13.037502 
1488855061.528455, 1488855061.528455, -1.029053, +0.202148, -0.257324, -12.593637, -45.343533, +11.236965 
1488855061.532199, 1488855061.532199, -1.029053, +0.202148, -0.257324, -12.593637, -45.343533, +11.236965 
1488855061.536127, 1488855061.536127, -1.029053, +0.139648, -0.250000, -12.593637, -45.343533, +11.236965 
1488855061.539879, 1488855061.539879, -1.046875, +0.151245, -0.250000, -19.322763, -42.352810, +8.276760 
1488855061.543773, 1488855061.543773, -1.046875, +0.151245, -0.250000, -19.322763, -42.352810, +8.276760 
1488855061.547527, 1488855061.547527, -1.046875, +0.151245, -0.250000, -19.322763, -42.352810, +8.276760 
1488855061.551279, 1488855061.551279, -1.046875, +0.151245, -0.250000, -21.993052, -43.054714, +7.727443 
1488855061.555319, 1488855061.555319, -1.046875, +0.151245, -0.250000, -21.993052, -43.054714, +7.727443 
1488855061.559268, 1488855061.559268, -1.018188, +0.122314, -0.410278, -21.993052, -41.635647, +7.468044 
1488855061.563249, 1488855061.563249, -1.018188, +0.122314, -0.410278, -20.543467, -41.635647, +7.468044 
1488855061.567002, 1488855061.567002, -1.018188, +0.122314, -0.410278, -20.543467, -41.635647, +7.468044 
1488855061.570847, 1488855061.570847, -1.018188, +0.122314, -0.410278, -19.963633, -39.285793, +9.985744 
1488855061.574739, 1488855061.574739, -1.018188, +0.122314, -0.410278, -19.963633, -39.285793, +9.985744 
1488855061.578677, 1488855061.578677, -1.029297, +0.132446, -0.380737, -19.963633, -39.285793, +9.985744 
1488855061.582621, 1488855061.582621, -1.029297, +0.132446, -0.380737, -16.133677, -36.996975, +10.382473 
1488855061.586572, 1488855061.586572, -1.029297, +0.132446, -0.380737, -16.133677, -36.996975, +10.382473 
1488855061.590517, 1488855061.590517, -1.029297, +0.132446, -0.380737, -16.133677, -36.996975, +10.382473 
1488855061.594500, 1488855061.594500, -1.029297, +0.132446, -0.380737, -14.745127, -35.898342, +10.657131 
1488855061.598449, 1488855061.598449, -1.039062, +0.145752, -0.290405, -14.745127, -35.898342, +10.657131 
1488855061.602398, 1488855061.602398, -1.039062, +0.145752, -0.290405, -14.745127, -35.898342, +11.908352 
1488855061.606353, 1488855061.606353, -1.039062, +0.145752, -0.290405, -13.295542, -36.661282, +11.908352 
1488855061.610450, 1488855061.610450, -1.039062, +0.145752, -0.290405, -13.295542, -36.661282, +11.908352 
1488855061.614650, 1488855061.614650, -1.039062, +0.145752, -0.290405, -10.945688, -36.539211, +13.785183 
1488855061.618401, 1488855061.618401, -1.059937, +0.131470, -0.336548, -10.945688, -36.539211, +13.785183 
1488855061.622152, 1488855061.622152, -1.059937, +0.131470, -0.336548, -10.945688, -36.539211, +13.785183 
1488855061.626104, 1488855061.626104, -1.059937, +0.131470, -0.336548, -9.312998, -36.768093, +16.180813 
1488855061.630047, 1488855061.630047, -1.059937, +0.131470, -0.336548, -9.312998, -36.768093, +16.180813 
1488855061.633996, 1488855061.633996, -1.059937, +0.131470, -0.336548, -9.312998, -36.768093, +16.180813 
1488855061.637936, 1488855061.637936, -1.132202, +0.162476, -0.227783, -7.848154, -37.988796, +18.957912 
1488855061.641875, 1488855061.641875, -1.132202, +0.162476, -0.227783, -7.848154, -37.988796, +18.957912 
1488855061.645681, 1488855061.645681, -1.132202, +0.162476, -0.227783, -7.848154, -37.988796, +18.957912 
1488855061.649427, 1488855061.649427, -1.132202, +0.162476, -0.227783, -6.871592, -42.093410, +21.872341 
1488855061.653306, 1488855061.653306, -1.132202, +0.162476, -0.227783, -6.871592, -42.093410, +21.872341 
1488855061.657199, 1488855061.657199, -1.127441, +0.129395, -0.375610, -6.871592, -49.905910, +23.291409 
1488855061.660939, 1488855061.660939, -1.127441, +0.129395, -0.375610, -8.427988, -47.937527, +23.291409 
1488855061.664826, 1488855061.664826, -1.127441, +0.129395, -0.375610, -8.427988, -47.937527, +23.291409 
1488855061.668567, 1488855061.668567, -1.127441, +0.129395, -0.375610, -11.128794, -51.248684, +25.503933 
1488855061.672311, 1488855061.672311, -1.127441, +0.129395, -0.375610, -11.128794, -51.248684, +25.503933 
1488855061.676062, 1488855061.676062, -1.104736, +0.180054, -0.358643, -11.128794, -51.248684, +25.503933 
1488855061.679804, 1488855061.679804, -1.104736, +0.180054, -0.358643, -11.098276, -51.004543, +28.586208 
1488855061.683553, 1488855061.683553, -1.104736, +0.180054, -0.358643, -11.098276, -51.004543, +28.586208 
1488855061.687299, 1488855061.687299, -1.104736, +0.180054, -0.358643, -11.098276, -51.004543, +28.586208 
1488855061.691041, 1488855061.691041, -1.104736, +0.180054, -0.358643, -8.412729, -52.332058, +30.524075 
1488855061.694839, 1488855061.694839, -1.104736, +0.242554, -0.351440, -8.412729, -52.332058, +30.524075 
1488855061.698580, 1488855061.698580, -1.126099, +0.242432, -0.351440, -8.412729, -52.332058, +30.524075 
1488855061.702322, 1488855061.702322, -1.126099, +0.242432, -0.351440, -9.343515, -54.468288, +31.225979 
1488855061.706101, 1488855061.706101, -1.126099, +0.242432, -0.351440, -9.343515, -54.468288, +31.225979 
1488855061.709844, 1488855061.709844, -1.126099, +0.242432, -0.351440, -9.343515, -54.468288, +31.225979 
1488855061.713606, 1488855061.713606, -1.126099, +0.242432, -0.351440, -11.952768, -58.008327, +32.187283 
1488855061.717347, 1488855061.717347, -1.150513, +0.205200, -0.286499, -11.952768, -58.008327, +32.187283 
1488855061.721204, 1488855061.721204, -1.150513, +0.205200, -0.286499, -11.952768, -58.008327, +32.187283 
1488855061.724993, 1488855061.724993, -1.150513, +0.205200, -0.286499, -10.457407, -60.449734, +34.231960 
1488855061.728734, 1488855061.728734, -1.150513, +0.205200, -0.286499, -10.457407, -60.449734, +34.231960 
1488855061.732473, 1488855061.732473, -1.150513, +0.205200, -0.286499, -10.457407, -60.449734, +34.231960 
1488855061.736402, 1488855061.736402, -1.160156, +0.252075, -0.307129, -8.717905, -63.028469, +37.375271 
1488855061.740344, 1488855061.740344, -1.160156, +0.252075, -0.307129, -8.717905, -63.028469, +37.375271 
1488855061.744301, 1488855061.744301, -1.160156, +0.252075, -0.307129, -8.717905, -66.003929, +38.779079 
1488855061.748242, 1488855061.748242, -1.160156, +0.252075, -0.307129, -9.496103, -66.003929, +38.779079 
1488855061.752183, 1488855061.752183, -1.160156, +0.252075, -0.307129, -9.496103, -66.003929, +38.779079 
1488855061.755985, 1488855061.755985, -1.183594, +0.229980, -0.300903, -11.861216, -70.871483, +40.076077 
