Calculating the offsets...
timestamp_before, timestamp_after, accel_x, accel_y, accel_z, gyro_x, gyro_y, gyro_z
1494023940.057355, 1494023940.057355, -1.103516, +0.102295, -0.234009, +0.026892, +0.007403, -1.074159 
1494023940.070348, 1494023940.070348, -1.106079, +0.101562, -0.230835, +0.026892, +0.007403, -1.074159 
1494023940.074089, 1494023940.074089, -1.106079, +0.101562, -0.230835, -0.110437, +0.221026, -0.631654 
1494023940.077885, 1494023940.077885, -1.106079, +0.101562, -0.230835, -0.110437, +0.221026, -0.631654 
1494023940.081720, 1494023940.081720, -1.106079, +0.101562, -0.230835, -0.110437, +0.221026, -0.692689 
1494023940.085463, 1494023940.085463, -1.106079, +0.101562, -0.230835, -0.568201, -0.038373, -0.692689 
1494023940.089201, 1494023940.089201, -1.102783, +0.100464, -0.228271, -0.568201, -0.038373, -0.692689 
1494023940.093050, 1494023940.093050, -1.102783, +0.100464, -0.228271, -0.568201, -0.267255, -0.738466 
1494023940.096882, 1494023940.096882, -1.102783, +0.100464, -0.228271, -0.156214, -0.267255, -0.738466 
1494023940.100680, 1494023940.100680, -1.102783, +0.100464, -0.228271, -0.156214, -0.267255, -0.738466 
1494023940.104433, 1494023940.104433, -1.102783, +0.100464, -0.228271, -0.079920, +0.053180, -0.555360 
1494023940.113961, 1494023940.113961, -1.104614, +0.107544, -0.228271, -0.079920, +0.053180, -0.555360 
1494023940.117833, 1494023940.117833, -1.104614, +0.107544, -0.228271, -0.354578, +0.343096, -0.509584 
1494023940.121730, 1494023940.121730, -1.104614, +0.107544, -0.228271, -0.354578, +0.343096, -0.509584 
1494023940.125872, 1494023940.125872, -1.104614, +0.107544, -0.228271, -0.598719, +0.251544, -0.585878 
1494023940.129767, 1494023940.129767, -1.109375, +0.102295, -0.232666, -0.598719, +0.251544, -0.585878 
1494023940.133864, 1494023940.133864, -1.109375, +0.102295, -0.232666, -0.598719, +0.251544, -0.585878 
1494023940.137776, 1494023940.137776, -1.109375, +0.102295, -0.232666, -0.522425, +0.282061, -0.509584 
1494023940.141664, 1494023940.141664, -1.109375, +0.102295, -0.232666, -0.522425, +0.282061, -0.509584 
1494023940.145604, 1494023940.145604, -1.109375, +0.102295, -0.232666, -0.522425, +0.282061, -0.509584 
1494023940.149357, 1494023940.149357, -1.107788, +0.102295, -0.229370, -0.186731, +0.343096, -0.219667 
1494023940.153105, 1494023940.153105, -1.107788, +0.102295, -0.229370, -0.186731, +0.343096, -0.219667 
1494023940.156910, 1494023940.156910, -1.107788, +0.102295, -0.229370, -0.186731, +0.343096, -0.219667 
1494023940.160647, 1494023940.160647, -1.107788, +0.102295, -0.229370, -0.156214, +0.175250, -0.112855 
1494023940.164392, 1494023940.164392, -1.107788, +0.102295, -0.229370, -0.156214, +0.175250, -0.112855 
1494023940.168243, 1494023940.168243, -1.104004, +0.100952, -0.223633, -0.156214, +0.175250, -0.112855 
1494023940.171986, 1494023940.171986, -1.104004, +0.100952, -0.223633, -0.369837, +0.282061, -0.265443 
1494023940.175935, 1494023940.175935, -1.104004, +0.100952, -0.223633, -0.369837, +0.282061, -0.265443 
1494023940.179884, 1494023940.179884, -1.104004, +0.100952, -0.223633, -0.369837, +0.221026, -0.341737 
1494023940.183993, 1494023940.183993, -1.104004, +0.100952, -0.223633, -0.339319, +0.221026, -0.341737 
1494023940.187930, 1494023940.187930, -1.104004, +0.102417, -0.230957, -0.339319, +0.221026, -0.341737 
1494023940.193201, 1494023940.193201, -1.104858, +0.102417, -0.230957, -0.491907, +0.495684, -0.311219 
1494023940.197213, 1494023940.197213, -1.104858, +0.102417, -0.230957, -0.491907, +0.495684, -0.311219 
1494023940.204588, 1494023940.204588, -1.104858, +0.102417, -0.230957, -0.568201, +0.297320, -0.158632 
1494023940.208546, 1494023940.208546, -1.107666, +0.102417, -0.230347, -0.568201, +0.297320, -0.158632 
1494023940.212490, 1494023940.212490, -1.107666, +0.102417, -0.230347, -0.568201, +0.297320, -0.341737 
1494023940.216373, 1494023940.216373, -1.107666, +0.102417, -0.230347, -0.354578, +0.297320, -0.341737 
1494023940.220120, 1494023940.220120, -1.107666, +0.102417, -0.230347, -0.354578, +0.297320, -0.341737 
1494023940.223871, 1494023940.223871, -1.107666, +0.102417, -0.230347, -0.293543, +0.221026, -0.295961 
1494023940.227838, 1494023940.227838, -1.105225, +0.099487, -0.229614, -0.293543, +0.221026, -0.295961 
1494023940.231585, 1494023940.231585, -1.105225, +0.099487, -0.229614, -0.293543, +0.221026, -0.295961 
1494023940.235400, 1494023940.235400, -1.105225, +0.099487, -0.229614, -0.110437, +0.312579, -0.006044 
1494023940.240134, 1494023940.240134, -1.105225, +0.099487, -0.229614, -0.110437, +0.312579, -0.006044 
1494023940.250380, 1494023940.250380, -1.109863, +0.102539, -0.227051, -0.186731, +0.282061, +0.375426 
1494023940.258302, 1494023940.258302, -1.109863, +0.102539, -0.227051, -0.522425, +0.022662, +0.131285 
1494023940.262048, 1494023940.262048, -1.109863, +0.102539, -0.227051, -0.522425, +0.022662, +0.131285 
1494023940.266005, 1494023940.266005, -1.109863, +0.102539, -0.227051, -0.522425, +0.022662, +0.131285 
1494023940.269939, 1494023940.269939, -1.103638, +0.104126, -0.223511, -0.324060, +0.205767, +0.131285 
1494023940.278695, 1494023940.278695, -1.103638, +0.104126, -0.223511, -0.339319, +0.251544, -0.006044 
1494023940.282443, 1494023940.282443, -1.103638, +0.104126, -0.223511, -0.339319, +0.251544, -0.006044 
1494023940.286200, 1494023940.286200, -1.103638, +0.104126, -0.223511, -0.339319, +0.251544, -0.006044 
1494023940.290681, 1494023940.290681, -1.104614, +0.105835, -0.233032, -0.446131, +0.282061, -0.112855 
1494023940.294425, 1494023940.294425, -1.104614, +0.105835, -0.233032, -0.446131, +0.282061, -0.112855 
1494023940.299520, 1494023940.299520, -1.104614, +0.105835, -0.233032, -0.446131, +0.282061, -0.067079 
1494023940.303264, 1494023940.303264, -1.104614, +0.105835, -0.233032, -0.247766, +0.465167, -0.067079 
1494023940.307013, 1494023940.307013, -1.104614, +0.102417, -0.229248, -0.247766, +0.465167, -0.067079 
1494023940.310750, 1494023940.310750, -1.107300, +0.102417, -0.229248, -0.247766, +0.312579, +0.039733 
1494023940.314491, 1494023940.314491, -1.107300, +0.102417, -0.229248, -0.110437, +0.312579, +0.039733 
1494023940.318301, 1494023940.318301, -1.107300, +0.102417, -0.229248, -0.110437, +0.312579, +0.039733 
1494023940.322038, 1494023940.322038, -1.107300, +0.102417, -0.229248, -0.049402, +0.159991, +0.146544 
1494023940.325805, 1494023940.325805, -1.107300, +0.102417, -0.229248, -0.049402, +0.159991, +0.146544 
1494023940.329979, 1494023940.329979, -1.108521, +0.100952, -0.230469, -0.049402, +0.159991, +0.146544 
1494023940.334790, 1494023940.334790, -1.108521, +0.100952, -0.230469, -0.201990, +0.556720, +0.207579 
1494023940.339133, 1494023940.339133, -1.108521, +0.100952, -0.230469, -0.201990, +0.556720, +0.207579 
1494023940.342875, 1494023940.342875, -1.108521, +0.100952, -0.230469, -0.201990, +0.556720, +0.360167 
1494023940.347217, 1494023940.347217, -1.104614, +0.104736, -0.231934, +0.087927, +0.373614, +0.360167 
1494023940.350955, 1494023940.350955, -1.104614, +0.104736, -0.231934, +0.087927, +0.373614, +0.360167 
1494023940.355048, 1494023940.355048, -1.104614, +0.104736, -0.231934, +0.271032, +0.358355, +0.329650 
1494023940.358997, 1494023940.358997, -1.104614, +0.104736, -0.231934, +0.271032, +0.358355, +0.329650 
1494023940.363445, 1494023940.363445, -1.104614, +0.104736, -0.231934, +0.271032, +0.358355, +0.329650 
1494023940.367206, 1494023940.367206, -1.106934, +0.103394, -0.229492, -0.217249, +0.266803, +0.558532 
1494023940.370955, 1494023940.370955, -1.106934, +0.103394, -0.229492, -0.217249, +0.266803, +0.558532 
1494023940.374741, 1494023940.374741, -1.106934, +0.103394, -0.229492, -0.217249, +0.266803, +0.558532 
1494023940.378489, 1494023940.378489, -1.106934, +0.103394, -0.229492, +0.103186, +0.495684, +0.344908 
1494023940.382226, 1494023940.382226, -1.106934, +0.103394, -0.229492, +0.103186, +0.495684, +0.344908 
1494023940.385981, 1494023940.385981, -1.106934, +0.103394, -0.230103, +0.103186, +0.495684, +0.344908 
1494023940.389886, 1494023940.389886, -1.106689, +0.100342, -0.230103, +0.194738, +0.465167, +0.146544 
1494023940.393625, 1494023940.393625, -1.106689, +0.100342, -0.230103, +0.194738, +0.465167, +0.146544 
1494023940.397622, 1494023940.397622, -1.106689, +0.100342, -0.230103, +0.194738, +0.571978, +0.344908 
1494023940.402500, 1494023940.402500, -1.106689, +0.100342, -0.230103, -0.156214, +0.571978, +0.344908 
1494023940.406249, 1494023940.406249, -1.106689, +0.102417, -0.231567, -0.156214, +0.571978, +0.344908 
1494023940.409989, 1494023940.409989, -1.104736, +0.102417, -0.231567, +0.087927, +0.556720, +0.192321 
1494023940.413749, 1494023940.413749, -1.104736, +0.102417, -0.231567, +0.087927, +0.556720, +0.192321 
1494023940.417525, 1494023940.417525, -1.104736, +0.102417, -0.231567, +0.087927, +0.556720, +0.192321 
1494023940.421900, 1494023940.421900, -1.104736, +0.102417, -0.231567, +0.087927, +0.617755, +0.161803 
1494023940.426576, 1494023940.426576, -1.106201, +0.102661, -0.237671, +0.087927, +0.617755, +0.161803 
1494023940.431439, 1494023940.431439, -1.106201, +0.102661, -0.237671, -0.064661, +0.510943, +0.589049 
1494023940.436372, 1494023940.436372, -1.106201, +0.102661, -0.237671, -0.064661, +0.510943, +0.589049 
1494023940.440117, 1494023940.440117, -1.106201, +0.102661, -0.237671, -0.064661, +0.510943, +0.589049 
1494023940.443854, 1494023940.443854, -1.106201, +0.102661, -0.237671, +0.499914, +0.434649, +0.405944 
1494023940.447598, 1494023940.447598, -1.108887, +0.107056, -0.227783, +0.499914, +0.434649, +0.405944 
1494023940.452133, 1494023940.452133, -1.108887, +0.107056, -0.227783, +0.499914, +0.434649, +0.497496 
1494023940.455877, 1494023940.455877, -1.108887, +0.107056, -0.227783, +0.332067, +0.282061, +0.497496 
1494023940.459624, 1494023940.459624, -1.108887, +0.107056, -0.227783, +0.332067, +0.282061, +0.497496 
1494023940.464621, 1494023940.464621, -1.108887, +0.107056, -0.227783, +0.606726, +0.739825, +0.741637 
1494023940.468382, 1494023940.468382, -1.109619, +0.094116, -0.220825, +0.606726, +0.739825, +0.741637 
1494023940.472124, 1494023940.472124, -1.109619, +0.094116, -0.220825, +0.606726, +0.739825, +0.741637 
1494023940.475880, 1494023940.475880, -1.109619, +0.094116, -0.220825, +0.744055, +0.633013, +0.802672 
1494023940.479618, 1494023940.479618, -1.109619, +0.094116, -0.220825, +0.744055, +0.633013, +0.802672 
1494023940.484050, 1494023940.484050, -1.109619, +0.094116, -0.220825, +0.744055, +0.633013, +0.802672 
1494023940.487863, 1494023940.487863, -1.106079, +0.103271, -0.230347, +0.545691, +0.831378, +1.092589 
1494023940.491609, 1494023940.491609, -1.106079, +0.103271, -0.230347, +0.545691, +0.831378, +1.092589 
1494023940.495422, 1494023940.495422, -1.106079, +0.103271, -0.230347, +0.545691, +0.831378, +1.214659 
1494023940.499166, 1494023940.499166, -1.106079, +0.103271, -0.230347, +0.377844, +0.785601, +1.214659 
1494023940.504828, 1494023940.504828, -1.106079, +0.103271, -0.233887, +0.377844, +0.785601, +1.214659 
1494023940.508575, 1494023940.508575, -1.103882, +0.103882, -0.233887, +0.148962, +0.694049, +1.153624 
1494023940.513242, 1494023940.513242, -1.103882, +0.103882, -0.233887, +0.148962, +0.694049, +1.153624 
1494023940.517006, 1494023940.517006, -1.103882, +0.103882, -0.233887, +0.148962, +0.694049, +1.031554 
1494023940.520942, 1494023940.520942, -1.103882, +0.103882, -0.233887, +0.347326, +0.587237, +1.031554 
1494023940.524756, 1494023940.524756, -1.103882, +0.103882, -0.232300, +0.347326, +0.587237, +1.031554 
1494023940.528487, 1494023940.528487, -1.110352, +0.101196, -0.232300, +0.347326, +0.358355, +1.351989 
1494023940.532625, 1494023940.532625, -1.110352, +0.101196, -0.232300, +0.713537, +0.358355, +1.351989 
1494023940.536963, 1494023940.536963, -1.110352, +0.101196, -0.232300, +0.713537, +0.358355, +1.351989 
1494023940.541959, 1494023940.541959, -1.110352, +0.101196, -0.232300, +0.972937, +0.266803, +1.489318 
1494023940.545757, 1494023940.545757, -1.106079, +0.115723, -0.231445, +0.972937, +0.266803, +1.489318 
1494023940.549494, 1494023940.549494, -1.106079, +0.115723, -0.231445, +0.972937, +0.266803, +1.489318 
1494023940.553226, 1494023940.553226, -1.106079, +0.115723, -0.231445, +0.683020, +0.358355, +1.229918 
1494023940.556965, 1494023940.556965, -1.106079, +0.115723, -0.231445, +0.683020, +0.358355, +1.229918 
1494023940.560837, 1494023940.560837, -1.106079, +0.115723, -0.231445, +0.683020, +0.358355, +0.863707 
1494023940.564578, 1494023940.564578, -1.106079, +0.115723, -0.237183, +0.133703, +0.144732, +0.863707 
1494023940.568969, 1494023940.568969, -1.105103, +0.112427, -0.237183, +0.133703, +0.144732, +0.863707 
1494023940.572707, 1494023940.572707, -1.105103, +0.112427, -0.237183, +0.133703, +0.434649, +0.695861 
1494023940.576565, 1494023940.576565, -1.105103, +0.112427, -0.237183, +0.133703, +0.434649, +0.695861 
1494023940.580306, 1494023940.580306, -1.105103, +0.112427, -0.237183, +0.133703, +0.434649, +0.695861 
1494023940.584146, 1494023940.584146, -1.105103, +0.112427, -0.237183, -0.140955, +0.633013, +0.619567 
1494023940.587904, 1494023940.587904, -1.107056, +0.102295, -0.235840, -0.140955, +0.633013, +0.619567 
1494023940.591648, 1494023940.591648, -1.107056, +0.102295, -0.235840, -0.140955, +0.633013, +0.619567 
1494023940.595425, 1494023940.595425, -1.107056, +0.102295, -0.235840, -0.049402, +0.724566, +0.558532 
1494023940.599165, 1494023940.599165, -1.107056, +0.102295, -0.235840, -0.049402, +0.724566, +0.558532 
1494023940.603263, 1494023940.603263, -1.107056, +0.102295, -0.235840, -0.049402, +0.724566, +0.558532 
1494023940.607132, 1494023940.607132, -1.105713, +0.108887, -0.234253, +0.011633, +0.617755, +0.695861 
1494023940.610890, 1494023940.610890, -1.105713, +0.108887, -0.234253, +0.011633, +0.617755, +0.695861 
1494023940.614639, 1494023940.614639, -1.105713, +0.108887, -0.234253, +0.011633, +0.617755, +0.695861 
1494023940.618440, 1494023940.618440, -1.105713, +0.108887, -0.234253, -0.125696, +0.510943, +0.772155 
1494023940.622178, 1494023940.622178, -1.105713, +0.108887, -0.234253, -0.125696, +0.510943, +0.772155 
1494023940.625999, 1494023940.625999, -1.100952, +0.108276, -0.241333, -0.125696, +0.510943, +0.680602 
1494023940.629735, 1494023940.629735, -1.100952, +0.108276, -0.241333, -0.263025, +0.541461, +0.680602 
1494023940.633466, 1494023940.633466, -1.100952, +0.108276, -0.241333, -0.263025, +0.541461, +0.680602 
1494023940.637212, 1494023940.637212, -1.100952, +0.108276, -0.241333, -0.263025, +0.541461, +0.787413 
1494023940.641201, 1494023940.641201, -1.100952, +0.108276, -0.241333, -0.034143, +0.282061, +0.787413 
1494023940.645005, 1494023940.645005, -1.104980, +0.109375, -0.237061, -0.034143, +0.282061, +0.787413 
1494023940.649348, 1494023940.649348, -1.104980, +0.109375, -0.237061, -0.003626, +0.083697, +0.558532 
1494023940.653954, 1494023940.653954, -1.104980, +0.109375, -0.237061, -0.003626, +0.083697, +0.558532 
1494023940.657722, 1494023940.657722, -1.104980, +0.109375, -0.237061, -0.003626, +0.083697, +0.558532 
1494023940.661464, 1494023940.661464, -1.104980, +0.109375, -0.237061, +0.057409, +0.083697, +0.451720 
1494023940.666138, 1494023940.666138, -1.101440, +0.114136, -0.231689, +0.057409, +0.083697, +0.451720 
1494023940.670185, 1494023940.670185, -1.101440, +0.114136, -0.231689, +0.057409, +0.037921, +0.314391 
1494023940.673927, 1494023940.673927, -1.101440, +0.114136, -0.231689, +0.301550, +0.037921, +0.314391 
1494023940.677811, 1494023940.677811, -1.101440, +0.114136, -0.231689, +0.301550, +0.037921, +0.314391 
1494023940.681550, 1494023940.681550, -1.101440, +0.114136, -0.231689, +0.118444, +0.251544, -0.036561 
1494023940.685291, 1494023940.685291, -1.106323, +0.113403, -0.231323, +0.118444, +0.251544, -0.036561 
1494023940.689577, 1494023940.689577, -1.106323, +0.113403, -0.231323, +0.118444, +0.251544, -0.036561 
1494023940.693353, 1494023940.693353, -1.106323, +0.113403, -0.231323, -0.263025, +0.358355, -0.540101 
1494023940.697167, 1494023940.697167, -1.106323, +0.113403, -0.231323, -0.263025, +0.358355, -0.540101 
1494023940.700908, 1494023940.700908, -1.106323, +0.113403, -0.231323, -0.263025, +0.358355, -0.540101 
1494023940.704657, 1494023940.704657, -1.108765, +0.107178, -0.229004, -0.736048, +0.465167, -0.311219 
1494023940.709013, 1494023940.709013, -1.108765, +0.107178, -0.229004, -0.736048, +0.465167, -0.311219 
1494023940.712905, 1494023940.712905, -1.108765, +0.107178, -0.229004, -0.736048, +0.465167, -0.341737 
1494023940.717066, 1494023940.717066, -1.108765, +0.107178, -0.229004, -0.507166, +0.266803, -0.341737 
1494023940.720807, 1494023940.720807, -1.108765, +0.107178, -0.229004, -0.507166, +0.266803, -0.341737 
1494023940.724560, 1494023940.724560, -1.104614, +0.105957, -0.240845, -0.232508, +0.282061, -0.509584 
1494023940.728973, 1494023940.728973, -1.104614, +0.105957, -0.240845, -0.232508, +0.282061, -0.509584 
1494023940.732915, 1494023940.732915, -1.104614, +0.105957, -0.240845, -0.232508, +0.282061, -0.509584 
1494023940.736770, 1494023940.736770, -1.104614, +0.105957, -0.240845, -0.385096, +0.159991, -0.356996 
1494023940.740516, 1494023940.740516, -1.104614, +0.105957, -0.240845, -0.385096, +0.159991, -0.356996 
1494023940.744258, 1494023940.744258, -1.103516, +0.106201, -0.234497, -0.385096, +0.159991, -0.356996 
1494023940.748221, 1494023940.748221, -1.103516, +0.106201, -0.234497, -0.217249, +0.236285, -0.356996 
1494023940.752166, 1494023940.752166, -1.103516, +0.106201, -0.234497, -0.217249, +0.236285, -0.356996 
1494023940.756053, 1494023940.756053, -1.103516, +0.106201, -0.234497, -0.217249, +0.236285, -0.356996 
1494023940.759805, 1494023940.759805, -1.103516, +0.106201, -0.234497, -0.263025, +0.312579, -0.356996 
1494023940.763546, 1494023940.763546, -1.103516, +0.110596, -0.239136, -0.263025, +0.312579, -0.356996 
1494023940.767337, 1494023940.767337, -1.103027, +0.110596, -0.239136, -0.263025, +0.312579, -0.356996 
1494023940.771082, 1494023940.771082, -1.103027, +0.110596, -0.239136, -0.354578, +0.068438, -0.387513 
1494023940.774897, 1494023940.774897, -1.103027, +0.110596, -0.239136, -0.354578, +0.068438, -0.387513 
1494023940.778663, 1494023940.778663, -1.103027, +0.110596, -0.239136, -0.354578, +0.068438, -0.448549 
1494023940.782416, 1494023940.782416, -1.103027, +0.110596, -0.239136, -0.049402, +0.236285, -0.448549 
1494023940.786377, 1494023940.786377, -1.103516, +0.107544, -0.231445, -0.049402, +0.236285, -0.448549 
1494023940.790136, 1494023940.790136, -1.103516, +0.107544, -0.231445, -0.049402, +0.251544, -0.097596 
1494023940.793880, 1494023940.793880, -1.103516, +0.107544, -0.231445, -0.095179, +0.251544, -0.097596 
1494023940.797935, 1494023940.797935, -1.103516, +0.107544, -0.231445, -0.095179, +0.251544, -0.097596 
1494023940.802656, 1494023940.802656, -1.103516, +0.107544, -0.232666, -0.125696, +0.205767, -0.418031 
1494023940.806541, 1494023940.806541, -1.108521, +0.111328, -0.232666, -0.125696, +0.205767, -0.418031 
1494023940.810281, 1494023940.810281, -1.108521, +0.111328, -0.232666, -0.125696, +0.205767, -0.418031 
1494023940.814150, 1494023940.814150, -1.108521, +0.111328, -0.232666, -0.537683, +0.098956, -0.524843 
1494023940.818671, 1494023940.818671, -1.108521, +0.111328, -0.232666, -0.537683, +0.098956, -0.524843 
1494023940.822612, 1494023940.822612, -1.108521, +0.111328, -0.237061, -0.537683, +0.114215, -0.311219 
1494023940.826509, 1494023940.826509, -1.108154, +0.106689, -0.237061, -0.537683, +0.114215, -0.311219 
1494023940.830256, 1494023940.830256, -1.108154, +0.106689, -0.237061, -0.537683, +0.114215, -0.311219 
1494023940.834006, 1494023940.834006, -1.108154, +0.106689, -0.237061, -0.247766, +0.449908, -0.280702 
1494023940.838354, 1494023940.838354, -1.108154, +0.106689, -0.237061, -0.247766, +0.449908, -0.280702 
1494023940.842100, 1494023940.842100, -1.108154, +0.106689, -0.237061, -0.247766, +0.449908, -0.280702 
1494023940.845912, 1494023940.845912, -1.106934, +0.099121, -0.238647, -0.278284, +0.526202, -0.021302 
1494023940.849851, 1494023940.849851, -1.106934, +0.099121, -0.238647, -0.278284, +0.526202, -0.021302 
1494023940.853791, 1494023940.853791, -1.106934, +0.099121, -0.238647, -0.278284, +0.526202, -0.021302 
1494023940.857596, 1494023940.857596, -1.106934, +0.099121, -0.238647, +0.072668, +0.236285, +0.466979 
1494023940.861342, 1494023940.861342, -1.106934, +0.099121, -0.238647, +0.072668, +0.236285, +0.466979 
1494023940.865230, 1494023940.865230, -1.102417, +0.108887, -0.229614, +0.072668, +0.236285, +0.299132 
1494023940.870415, 1494023940.870415, -1.102417, +0.108887, -0.229614, +0.042150, +0.312579, +0.299132 
1494023940.875504, 1494023940.875504, -1.102417, +0.108887, -0.229614, +0.042150, +0.312579, +0.299132 
1494023940.879258, 1494023940.879258, -1.102417, +0.108887, -0.229614, -0.263025, +0.266803, +0.192321 
1494023940.883006, 1494023940.883006, -1.104492, +0.100830, -0.240601, -0.263025, +0.266803, +0.192321 
1494023940.886883, 1494023940.886883, -1.104492, +0.100830, -0.240601, -0.263025, +0.266803, +0.192321 
1494023940.890818, 1494023940.890818, -1.104492, +0.100830, -0.240601, +0.072668, +0.221026, +0.329650 
1494023940.894776, 1494023940.894776, -1.104492, +0.100830, -0.240601, +0.072668, +0.221026, +0.329650 
1494023940.898525, 1494023940.898525, -1.104492, +0.100830, -0.240601, +0.072668, +0.221026, +0.528014 
1494023940.902275, 1494023940.902275, -1.104492, +0.100830, -0.232178, +0.454138, +0.312579, +0.528014 
1494023940.906312, 1494023940.906312, -1.108154, +0.106567, -0.232178, +0.454138, +0.312579, +0.528014 
1494023940.910062, 1494023940.910062, -1.108154, +0.106567, -0.232178, +0.301550, +0.251544, +0.741637 
1494023940.913969, 1494023940.913969, -1.108154, +0.106567, -0.232178, +0.301550, +0.251544, +0.741637 
1494023940.917727, 1494023940.917727, -1.108154, +0.106567, -0.232178, +0.301550, +0.251544, +0.741637 
1494023940.921475, 1494023940.921475, -1.108154, +0.106567, -0.232178, +0.118444, +0.144732, +0.512755 
1494023940.925259, 1494023940.925259, -1.104248, +0.116699, -0.238281, +0.118444, +0.144732, +0.512755 
1494023940.929199, 1494023940.929199, -1.104248, +0.116699, -0.238281, +0.118444, +0.144732, +0.512755 
1494023940.933144, 1494023940.933144, -1.104248, +0.116699, -0.238281, -0.095179, +0.297320, +0.558532 
1494023940.937098, 1494023940.937098, -1.104248, +0.116699, -0.238281, -0.095179, +0.297320, +0.558532 
1494023940.941040, 1494023940.941040, -1.104248, +0.116699, -0.238281, -0.095179, +0.297320, +0.558532 
1494023940.944981, 1494023940.944981, -1.105225, +0.108398, -0.234985, -0.293543, +0.358355, +0.421202 
1494023940.948734, 1494023940.948734, -1.105225, +0.108398, -0.234985, -0.293543, +0.358355, +0.421202 
1494023940.952479, 1494023940.952479, -1.105225, +0.108398, -0.234985, -0.293543, +0.358355, +0.421202 
1494023940.956519, 1494023940.956519, -1.105225, +0.108398, -0.234985, -0.018885, +0.175250, +0.451720 
1494023940.960269, 1494023940.960269, -1.105225, +0.108398, -0.234985, -0.018885, +0.175250, +0.451720 
1494023940.964008, 1494023940.964008, -1.103760, +0.104370, -0.241089, -0.018885, +0.068438, +0.589049 
1494023940.968079, 1494023940.968079, -1.103760, +0.104370, -0.241089, +0.560949, +0.068438, +0.589049 
1494023940.972004, 1494023940.972004, -1.103760, +0.104370, -0.241089, +0.560949, +0.068438, +0.589049 
1494023940.976026, 1494023940.976026, -1.103760, +0.104370, -0.241089, +0.667761, +0.053180, +0.940001 
1494023940.980060, 1494023940.980060, -1.103760, +0.104370, -0.241089, +0.667761, +0.053180, +0.940001 
1494023940.983815, 1494023940.983815, -1.100586, +0.110718, -0.232910, +0.667761, +0.053180, +0.940001 
1494023940.987907, 1494023940.987907, -1.100586, +0.110718, -0.232910, +0.637243, -0.145185, +0.573790 
1494023940.992398, 1494023940.992398, -1.100586, +0.110718, -0.232910, +0.637243, -0.145185, +0.573790 
1494023940.996493, 1494023940.996493, -1.100586, +0.110718, -0.232910, +0.637243, -0.145185, +0.405944 
1494023941.000417, 1494023941.000417, -1.100586, +0.110718, -0.232910, +0.209997, +0.312579, +0.405944 
1494023941.004341, 1494023941.004341, -1.104004, +0.105713, -0.229980, +0.209997, +0.312579, +0.405944 
1494023941.008265, 1494023941.008265, -1.104004, +0.105713, -0.229980, -0.156214, +0.327838, +0.558532 
1494023941.012266, 1494023941.012266, -1.104004, +0.105713, -0.229980, -0.156214, +0.327838, +0.558532 
1494023941.016162, 1494023941.016162, -1.104004, +0.105713, -0.229980, -0.156214, +0.327838, +0.558532 
1494023941.019904, 1494023941.019904, -1.104004, +0.105713, -0.229980, +0.408361, +0.312579, +0.558532 
1494023941.023768, 1494023941.023768, -1.105591, +0.111450, -0.238892, +0.408361, +0.312579, +0.558532 
1494023941.027527, 1494023941.027527, -1.105591, +0.111450, -0.238892, +0.408361, +0.312579, +0.558532 
1494023941.031276, 1494023941.031276, -1.105591, +0.111450, -0.238892, +0.377844, +0.388873, +0.543273 
1494023941.035149, 1494023941.035149, -1.105591, +0.111450, -0.238892, +0.377844, +0.388873, +0.543273 
1494023941.038897, 1494023941.038897, -1.105591, +0.111450, -0.238892, +0.377844, +0.388873, +0.543273 
1494023941.042635, 1494023941.042635, -1.101318, +0.111206, -0.243164, +0.271032, +0.114215, +0.680602 
1494023941.046465, 1494023941.046465, -1.101318, +0.111206, -0.243164, +0.271032, +0.114215, +0.680602 
1494023941.050210, 1494023941.050210, -1.101318, +0.111206, -0.243164, +0.271032, +0.114215, +0.680602 
1494023941.053950, 1494023941.053950, -1.101318, +0.111206, -0.243164, +0.484655, +0.083697, +0.436461 
1494023941.057710, 1494023941.057710, -1.101318, +0.111206, -0.243164, +0.484655, +0.083697, +0.436461 
1494023941.061453, 1494023941.061453, -1.101318, +0.115112, -0.239502, +0.484655, +0.083697, +0.436461 
1494023941.065222, 1494023941.065222, -1.105713, +0.115112, -0.239502, +0.423620, +0.098956, +0.100768 
1494023941.068958, 1494023941.068958, -1.105713, +0.115112, -0.239502, +0.423620, +0.098956, +0.100768 
1494023941.072702, 1494023941.072702, -1.105713, +0.115112, -0.239502, +0.423620, +0.098956, -0.021302 
1494023941.076666, 1494023941.076666, -1.105713, +0.115112, -0.239502, +0.057409, -0.053632, -0.021302 
1494023941.080406, 1494023941.080406, -1.105713, +0.115112, -0.239502, +0.057409, -0.053632, -0.021302 
1494023941.084143, 1494023941.084143, -1.103638, +0.113770, -0.233276, +0.560949, +0.129473, -0.387513 
1494023941.088040, 1494023941.088040, -1.103638, +0.113770, -0.233276, +0.560949, +0.129473, -0.387513 
1494023941.098236, 1494023941.098236, -1.103638, +0.113770, -0.233276, -0.140955, +0.037921, -0.479066 
1494023941.102172, 1494023941.102172, -1.104126, +0.113037, -0.237549, -0.140955, +0.037921, -0.479066 
1494023941.106052, 1494023941.106052, -1.104126, +0.113037, -0.237549, -0.446131, +0.144732, -0.540101 
1494023941.109803, 1494023941.109803, -1.104126, +0.113037, -0.237549, -0.446131, +0.144732, -0.540101 
1494023941.113987, 1494023941.113987, -1.104126, +0.113037, -0.237549, -0.446131, +0.144732, -0.540101 
1494023941.117841, 1494023941.117841, -1.104126, +0.113037, -0.237549, -0.324060, +0.205767, -0.540101 
1494023941.121587, 1494023941.121587, -1.101562, +0.105225, -0.236816, -0.324060, +0.205767, -0.540101 
1494023941.125707, 1494023941.125707, -1.101562, +0.105225, -0.236816, -0.324060, +0.205767, -0.540101 
1494023941.129447, 1494023941.129447, -1.101562, +0.105225, -0.236816, -0.339319, +0.236285, -0.631654 
1494023941.133194, 1494023941.133194, -1.101562, +0.105225, -0.236816, -0.339319, +0.236285, -0.631654 
1494023941.136968, 1494023941.136968, -1.101562, +0.105225, -0.236816, -0.339319, +0.236285, -0.631654 
1494023941.140712, 1494023941.140712, -1.101562, +0.111938, -0.241089, +0.240515, +0.327838, -0.601136 
1494023941.144453, 1494023941.144453, -1.101929, +0.111938, -0.241089, +0.240515, +0.327838, -0.601136 
1494023941.148245, 1494023941.148245, -1.101929, +0.111938, -0.241089, +0.240515, +0.327838, -0.601136 
1494023941.151985, 1494023941.151985, -1.101929, +0.111938, -0.241089, +0.255774, +0.373614, -0.875795 
1494023941.155784, 1494023941.155784, -1.101929, +0.111938, -0.241089, +0.255774, +0.373614, -0.875795 
1494023941.159527, 1494023941.159527, -1.101929, +0.111938, -0.241089, +0.255774, +0.373614, -0.875795 
1494023941.163273, 1494023941.163273, -1.107910, +0.111816, -0.237549, -0.247766, +0.373614, -0.631654 
1494023941.167035, 1494023941.167035, -1.107910, +0.111816, -0.237549, -0.247766, +0.373614, -0.631654 
1494023941.170782, 1494023941.170782, -1.107910, +0.111816, -0.237549, -0.339319, +0.190509, -0.494325 
1494023941.175428, 1494023941.175428, -1.107910, +0.111816, -0.237549, -0.339319, +0.190509, -0.494325 
1494023941.179525, 1494023941.179525, -1.107910, +0.111816, -0.237549, -0.339319, +0.190509, -0.494325 
1494023941.183472, 1494023941.183472, -1.100952, +0.107544, -0.239014, -0.079920, +0.068438, -0.418031 
1494023941.187439, 1494023941.187439, -1.100952, +0.107544, -0.239014, -0.079920, +0.068438, -0.418031 
1494023941.191376, 1494023941.191376, -1.100952, +0.107544, -0.239014, -0.079920, +0.068438, -0.418031 
1494023941.195301, 1494023941.195301, -1.100952, +0.107544, -0.239014, +0.377844, +0.068438, -0.601136 
1494023941.199051, 1494023941.199051, -1.100952, +0.107544, -0.239014, +0.377844, +0.068438, -0.601136 
1494023941.202806, 1494023941.202806, -1.106812, +0.106689, -0.237793, +0.377844, +0.068438, -0.601136 
1494023941.206560, 1494023941.206560, -1.106812, +0.106689, -0.237793, +0.194738, +0.053180, -0.418031 
1494023941.210311, 1494023941.210311, -1.106812, +0.106689, -0.237793, +0.194738, +0.053180, -0.418031 
1494023941.214064, 1494023941.214064, -1.106812, +0.106689, -0.237793, +0.194738, +0.053180, -0.128114 
1494023941.217999, 1494023941.217999, -1.106812, +0.106689, -0.237793, +0.087927, -0.084150, -0.128114 
1494023941.221748, 1494023941.221748, -1.103516, +0.109009, -0.236816, +0.087927, -0.084150, -0.128114 
1494023941.225555, 1494023941.225555, -1.103516, +0.109009, -0.236816, +0.087927, +0.312579, -0.356996 
1494023941.229500, 1494023941.229500, -1.103516, +0.109009, -0.236816, +0.103186, +0.312579, -0.356996 
1494023941.233441, 1494023941.233441, -1.103516, +0.109009, -0.236816, +0.103186, +0.312579, -0.356996 
1494023941.237436, 1494023941.237436, -1.103516, +0.109009, -0.236816, -0.278284, +0.205767, -0.219667 
1494023941.241432, 1494023941.241432, -1.099365, +0.109009, -0.241821, -0.278284, +0.205767, -0.219667 
1494023941.245359, 1494023941.245359, -1.099365, +0.109009, -0.241821, -0.278284, +0.205767, -0.219667 
1494023941.249108, 1494023941.249108, -1.099365, +0.109009, -0.241821, +0.057409, +0.251544, -0.006044 
1494023941.253911, 1494023941.253911, -1.099365, +0.109009, -0.241821, +0.057409, +0.251544, -0.006044 
1494023941.257738, 1494023941.257738, -1.099365, +0.109009, -0.241821, +0.057409, +0.251544, -0.021302 
1494023941.261482, 1494023941.261482, -1.102173, +0.107422, -0.239380, -0.003626, +0.297320, -0.021302 
1494023941.265768, 1494023941.265768, -1.102173, +0.107422, -0.239380, -0.003626, +0.297320, -0.021302 
1494023941.269510, 1494023941.269510, -1.102173, +0.107422, -0.239380, -0.125696, +0.236285, -0.372255 
1494023941.273251, 1494023941.273251, -1.102173, +0.107422, -0.239380, -0.125696, +0.236285, -0.372255 
1494023941.277002, 1494023941.277002, -1.102173, +0.107422, -0.239380, -0.125696, +0.236285, -0.372255 
1494023941.280741, 1494023941.280741, -1.104980, +0.110107, -0.240967, +0.286291, +0.388873, -0.479066 
1494023941.284483, 1494023941.284483, -1.104980, +0.110107, -0.240967, +0.286291, +0.388873, -0.479066 
1494023941.288270, 1494023941.288270, -1.104980, +0.110107, -0.240967, +0.286291, +0.388873, -0.479066 
1494023941.292010, 1494023941.292010, -1.104980, +0.110107, -0.240967, -0.186731, +0.358355, -0.356996 
1494023941.296021, 1494023941.296021, -1.104980, +0.110107, -0.240967, -0.186731, +0.358355, -0.356996 
1494023941.299764, 1494023941.299764, -1.104980, +0.105469, -0.240601, -0.186731, +0.358355, -0.356996 
1494023941.303506, 1494023941.303506, -1.106812, +0.105469, -0.240601, -0.308802, +0.205767, -0.234926 
1494023941.307998, 1494023941.307998, -1.106812, +0.105469, -0.240601, -0.308802, +0.205767, -0.234926 
1494023941.311733, 1494023941.311733, -1.106812, +0.105469, -0.240601, -0.308802, +0.205767, -0.234926 
1494023941.315492, 1494023941.315492, -1.106812, +0.105469, -0.240601, -0.140955, +0.159991, -0.433290 
1494023941.319234, 1494023941.319234, -1.106812, +0.105469, -0.239136, -0.140955, +0.159991, -0.433290 
1494023941.322982, 1494023941.322982, -1.103027, +0.108276, -0.239136, -0.140955, +0.159991, -0.433290 
1494023941.336768, 1494023941.336768, -1.103027, +0.108276, -0.239136, -0.522425, +0.098956, -0.265443 
1494023941.341934, 1494023941.341934, -1.103638, +0.109253, -0.243042, -0.522425, +0.098956, -0.265443 
1494023941.346070, 1494023941.346070, -1.103638, +0.109253, -0.243042, -0.003626, +0.266803, -0.387513 
1494023941.349899, 1494023941.349899, -1.103638, +0.109253, -0.243042, -0.003626, +0.266803, -0.387513 
1494023941.353732, 1494023941.353732, -1.103638, +0.109253, -0.243042, -0.003626, +0.266803, -0.387513 
1494023941.357700, 1494023941.357700, -1.103638, +0.109253, -0.243042, -0.079920, +0.175250, -0.448549 
1494023941.361494, 1494023941.361494, -1.107300, +0.102173, -0.239624, -0.079920, +0.175250, -0.448549 
1494023941.365270, 1494023941.365270, -1.107300, +0.102173, -0.239624, -0.079920, +0.175250, -0.448549 
1494023941.369414, 1494023941.369414, -1.107300, +0.102173, -0.239624, -0.034143, +0.007403, -0.082338 
1494023941.373284, 1494023941.373284, -1.107300, +0.102173, -0.239624, -0.034143, +0.007403, -0.082338 
1494023941.377250, 1494023941.377250, -1.107300, +0.102173, -0.239624, -0.034143, +0.007403, -0.082338 
1494023941.381102, 1494023941.381102, -1.105225, +0.105835, -0.239990, +0.637243, +0.159991, -0.082338 
1494023941.385005, 1494023941.385005, -1.105225, +0.105835, -0.239990, +0.637243, +0.159991, -0.082338 
1494023941.388749, 1494023941.388749, -1.105225, +0.105835, -0.239990, +0.637243, +0.159991, -0.143373 
1494023941.392494, 1494023941.392494, -1.105225, +0.105835, -0.239990, +0.621984, -0.084150, -0.143373 
1494023941.396241, 1494023941.396241, -1.105225, +0.105835, -0.239990, +0.621984, -0.084150, -0.143373 
1494023941.399987, 1494023941.399987, -1.104736, +0.101196, -0.243042, +0.621984, -0.389325, +0.131285 
1494023941.403734, 1494023941.403734, -1.104736, +0.101196, -0.243042, +0.637243, -0.389325, +0.131285 
1494023941.407519, 1494023941.407519, -1.104736, +0.101196, -0.243042, +0.637243, -0.389325, +0.131285 
1494023941.411262, 1494023941.411262, -1.104736, +0.101196, -0.243042, +0.713537, -0.160444, +0.207579 
1494023941.415057, 1494023941.415057, -1.104736, +0.101196, -0.243042, +0.713537, -0.160444, +0.207579 
1494023941.418804, 1494023941.418804, -1.104736, +0.110718, -0.239746, +0.713537, -0.160444, +0.207579 
1494023941.422548, 1494023941.422548, -1.102661, +0.110718, -0.239746, +0.850866, -0.099408, -0.051820 
1494023941.426479, 1494023941.426479, -1.102661, +0.110718, -0.239746, +0.850866, -0.099408, -0.051820 
1494023941.430225, 1494023941.430225, -1.102661, +0.110718, -0.239746, +0.850866, -0.099408, -0.051820 
1494023941.433965, 1494023941.433965, -1.102661, +0.110718, -0.239746, +0.683020, +0.068438, -0.036561 
1494023941.437874, 1494023941.437874, -1.102661, +0.110718, -0.239746, +0.683020, +0.068438, -0.036561 
1494023941.441613, 1494023941.441613, -1.105957, +0.110352, -0.237915, +0.683020, +0.068438, -0.036561 
1494023941.445558, 1494023941.445558, -1.105957, +0.110352, -0.237915, +0.164221, -0.129926, -0.311219 
1494023941.449307, 1494023941.449307, -1.105957, +0.110352, -0.237915, +0.164221, -0.129926, -0.311219 
1494023941.453398, 1494023941.453398, -1.105957, +0.110352, -0.237915, +0.164221, -0.129926, -0.311219 
1494023941.457292, 1494023941.457292, -1.105957, +0.110352, -0.237915, +0.438879, +0.129473, -0.463807 
1494023941.461242, 1494023941.461242, -1.105469, +0.108032, -0.234863, +0.438879, +0.129473, -0.463807 
1494023941.465184, 1494023941.465184, -1.105469, +0.108032, -0.234863, +0.438879, +0.144732, -0.326478 
1494023941.468928, 1494023941.468928, -1.105469, +0.108032, -0.234863, +0.255774, +0.144732, -0.326478 
1494023941.472677, 1494023941.472677, -1.105469, +0.108032, -0.234863, +0.255774, +0.144732, -0.326478 
1494023941.477067, 1494023941.477067, -1.105469, +0.108032, -0.234863, +0.225256, +0.221026, -0.250184 
1494023941.480813, 1494023941.480813, -1.105103, +0.107910, -0.246338, +0.225256, +0.221026, -0.250184 
1494023941.485150, 1494023941.485150, -1.105103, +0.107910, -0.246338, +0.225256, +0.221026, -0.250184 
1494023941.488905, 1494023941.488905, -1.105103, +0.107910, -0.246338, +0.560949, +0.068438, -0.234926 
1494023941.493267, 1494023941.493267, -1.105103, +0.107910, -0.246338, +0.560949, +0.068438, -0.234926 
1494023941.497148, 1494023941.497148, -1.105103, +0.107910, -0.246338, +0.560949, +0.068438, -0.234926 
1494023941.500893, 1494023941.500893, -1.105957, +0.110107, -0.246582, +1.247595, -0.114667, -0.219667 
1494023941.504631, 1494023941.504631, -1.105957, +0.110107, -0.246582, +1.247595, -0.114667, -0.219667 
1494023941.508477, 1494023941.508477, -1.105957, +0.110107, -0.246582, +1.247595, -0.114667, -0.143373 
1494023941.512218, 1494023941.512218, -1.105957, +0.110107, -0.246582, +1.705359, -0.297773, -0.143373 
1494023941.516056, 1494023941.516056, -1.105957, +0.110107, -0.246582, +1.705359, -0.297773, -0.143373 
1494023941.520322, 1494023941.520322, -1.103027, +0.108887, -0.235962, +1.568029, +0.022662, -0.326478 
1494023941.524064, 1494023941.524064, -1.103027, +0.108887, -0.235962, +1.568029, +0.022662, -0.326478 
1494023941.527888, 1494023941.527888, -1.103027, +0.108887, -0.235962, +1.568029, +0.022662, -0.326478 
1494023941.531632, 1494023941.531632, -1.103027, +0.108887, -0.235962, +1.125525, +0.053180, -0.143373 
1494023941.535418, 1494023941.535418, -1.103027, +0.108887, -0.235962, +1.125525, +0.053180, -0.143373 
1494023941.539161, 1494023941.539161, -1.100586, +0.105713, -0.240967, +1.125525, +0.053180, -0.143373 
1494023941.542901, 1494023941.542901, -1.100586, +0.105713, -0.240967, +0.011633, +0.068438, -0.494325 
1494023941.546655, 1494023941.546655, -1.100586, +0.105713, -0.240967, +0.011633, +0.068438, -0.494325 
1494023941.550398, 1494023941.550398, -1.100586, +0.105713, -0.240967, +0.011633, +0.068438, -0.494325 
1494023941.554751, 1494023941.554751, -1.100586, +0.105713, -0.240967, +0.454138, -0.084150, +0.009215 
1494023941.558497, 1494023941.558497, -1.101807, +0.107910, -0.241821, +0.454138, -0.084150, +0.009215 
1494023941.562238, 1494023941.562238, -1.101807, +0.107910, -0.241821, +0.454138, -0.084150, +0.009215 
1494023941.566466, 1494023941.566466, -1.101807, +0.107910, -0.241821, +0.713537, -0.236737, -0.173890 
1494023941.570211, 1494023941.570211, -1.101807, +0.107910, -0.241821, +0.713537, -0.236737, -0.173890 
1494023941.573955, 1494023941.573955, -1.101807, +0.107910, -0.241821, +0.713537, -0.236737, -0.509584 
1494023941.577713, 1494023941.577713, -1.101807, +0.106323, -0.240112, +0.454138, -0.251996, -0.509584 
1494023941.581591, 1494023941.581591, -1.103271, +0.106323, -0.240112, +0.454138, -0.251996, -0.509584 
1494023941.585391, 1494023941.585391, -1.103271, +0.106323, -0.240112, +0.225256, -0.160444, -0.646913 
1494023941.589125, 1494023941.589125, -1.103271, +0.106323, -0.240112, +0.225256, -0.160444, -0.646913 
1494023941.593523, 1494023941.593523, -1.103271, +0.106323, -0.240112, +0.225256, -0.160444, -0.646913 
1494023941.597315, 1494023941.597315, -1.103271, +0.108643, -0.234497, +0.271032, +0.022662, -0.494325 
1494023941.601054, 1494023941.601054, -1.107422, +0.108643, -0.234497, +0.271032, +0.022662, -0.494325 
1494023941.604803, 1494023941.604803, -1.107422, +0.108643, -0.234497, +0.271032, +0.022662, -0.494325 
1494023941.608741, 1494023941.608741, -1.107422, +0.108643, -0.234497, +0.271032, -0.099408, -0.601136 
1494023941.612679, 1494023941.612679, -1.107422, +0.108643, -0.234497, +0.271032, -0.099408, -0.601136 
1494023941.616636, 1494023941.616636, -1.107422, +0.108643, -0.238892, +0.271032, -0.099408, -0.601136 
1494023941.620582, 1494023941.620582, -1.104980, +0.104248, -0.238892, +0.316809, -0.084150, -0.341737 
1494023941.624521, 1494023941.624521, -1.104980, +0.104248, -0.238892, +0.316809, -0.084150, -0.341737 
1494023941.628285, 1494023941.628285, -1.104980, +0.104248, -0.238892, +0.316809, -0.084150, -0.448549 
1494023941.632037, 1494023941.632037, -1.104980, +0.104248, -0.238892, +0.515173, +0.098956, -0.448549 
1494023941.635905, 1494023941.635905, -1.104980, +0.104248, -0.238892, +0.515173, +0.098956, -0.448549 
1494023941.639654, 1494023941.639654, -1.101929, +0.109741, -0.243896, +0.515173, -0.084150, -0.356996 
1494023941.643399, 1494023941.643399, -1.101929, +0.109741, -0.243896, +0.896643, -0.084150, -0.356996 
1494023941.647489, 1494023941.647489, -1.101929, +0.109741, -0.243896, +0.896643, -0.084150, -0.356996 
1494023941.651430, 1494023941.651430, -1.101929, +0.109741, -0.243896, +0.942419, -0.206220, -0.387513 
1494023941.655387, 1494023941.655387, -1.101929, +0.109741, -0.243896, +0.942419, -0.206220, -0.387513 
1494023941.659330, 1494023941.659330, -1.104858, +0.104980, -0.240479, +0.942419, -0.206220, -0.387513 
1494023941.663273, 1494023941.663273, -1.104858, +0.104980, -0.240479, +0.515173, -0.099408, -0.494325 
1494023941.667222, 1494023941.667222, -1.104858, +0.104980, -0.240479, +0.515173, -0.099408, -0.494325 
1494023941.671166, 1494023941.671166, -1.104858, +0.104980, -0.240479, +0.515173, -0.099408, -0.494325 
1494023941.675120, 1494023941.675120, -1.104858, +0.104980, -0.240479, +0.423620, -0.221479, -0.646913 
1494023941.679057, 1494023941.679057, -1.102661, +0.106201, -0.239136, +0.423620, -0.221479, -0.646913 
1494023941.682999, 1494023941.682999, -1.102661, +0.106201, -0.239136, +0.423620, -0.190961, -0.677430 
1494023941.686863, 1494023941.686863, -1.102661, +0.106201, -0.239136, +0.560949, -0.190961, -0.677430 
1494023941.690605, 1494023941.690605, -1.102661, +0.106201, -0.239136, +0.560949, -0.190961, -0.677430 
1494023941.694346, 1494023941.694346, -1.102661, +0.106201, -0.239136, +0.484655, -0.282514, -0.585878 
1494023941.698287, 1494023941.698287, -1.101929, +0.110718, -0.239990, +0.484655, -0.282514, -0.585878 
1494023941.702419, 1494023941.702419, -1.101929, +0.110718, -0.239990, +0.484655, -0.282514, -0.585878 
1494023941.706404, 1494023941.706404, -1.101929, +0.110718, -0.239990, +0.240515, -0.145185, -0.524843 
1494023941.710350, 1494023941.710350, -1.101929, +0.110718, -0.239990, +0.240515, -0.145185, -0.524843 
1494023941.714292, 1494023941.714292, -1.101929, +0.110718, -0.239990, +0.240515, -0.145185, -0.524843 
1494023941.718071, 1494023941.718071, -1.104980, +0.105469, -0.241699, +0.087927, -0.145185, -0.646913 
1494023941.721820, 1494023941.721820, -1.104980, +0.105469, -0.241699, +0.087927, -0.145185, -0.646913 
1494023941.725613, 1494023941.725613, -1.104980, +0.105469, -0.241699, +0.087927, -0.145185, -0.646913 
1494023941.729357, 1494023941.729357, -1.104980, +0.105469, -0.241699, +0.286291, -0.190961, -0.692689 
1494023941.733096, 1494023941.733096, -1.104980, +0.105469, -0.241699, +0.286291, -0.190961, -0.692689 
1494023941.736915, 1494023941.736915, -1.104126, +0.102173, -0.242798, +0.286291, -0.190961, -0.692689 
1494023941.740659, 1494023941.740659, -1.104126, +0.102173, -0.242798, -0.064661, -0.343549, -0.738466 
1494023941.744484, 1494023941.744484, -1.104126, +0.102173, -0.242798, -0.064661, -0.343549, -0.738466 
1494023941.749339, 1494023941.749339, -1.104126, +0.102173, -0.242798, +0.423620, -0.374067, -0.494325 
1494023941.753080, 1494023941.753080, -1.104126, +0.102173, -0.242798, +0.423620, -0.374067, -0.494325 
1494023941.756832, 1494023941.756832, -1.104614, +0.102173, -0.239136, +0.423620, -0.374067, -0.494325 
1494023941.760570, 1494023941.760570, -1.104614, +0.102173, -0.239136, +0.240515, -0.236737, -0.250184 
1494023941.764301, 1494023941.764301, -1.104614, +0.102173, -0.239136, +0.240515, -0.236737, -0.250184 
1494023941.768106, 1494023941.768106, -1.104614, +0.102173, -0.239136, +0.240515, -0.236737, -0.250184 
1494023941.771853, 1494023941.771853, -1.104614, +0.102173, -0.239136, +0.301550, -0.251996, -0.479066 
1494023941.775613, 1494023941.775613, -1.104614, +0.102173, -0.236572, +0.301550, -0.251996, -0.479066 
1494023941.779363, 1494023941.779363, -1.105957, +0.107666, -0.236572, +0.301550, -0.251996, -0.479066 
1494023941.783111, 1494023941.783111, -1.105957, +0.107666, -0.236572, -0.369837, -0.023114, -0.631654 
1494023941.786925, 1494023941.786925, -1.105957, +0.107666, -0.236572, -0.369837, -0.023114, -0.631654 
1494023941.790674, 1494023941.790674, -1.105957, +0.107666, -0.236572, -0.369837, -0.023114, -0.631654 
1494023941.794429, 1494023941.794429, -1.105957, +0.107666, -0.236572, +0.072668, -0.038373, -0.631654 
1494023941.798232, 1494023941.798232, -1.107178, +0.107056, -0.239136, +0.072668, -0.038373, -0.631654 
1494023941.802187, 1494023941.802187, -1.107178, +0.107056, -0.239136, +0.072668, -0.038373, -0.631654 
1494023941.806178, 1494023941.806178, -1.107178, +0.107056, -0.239136, +0.347326, -0.114667, -0.616395 
1494023941.809918, 1494023941.809918, -1.107178, +0.107056, -0.239136, +0.347326, -0.114667, -0.616395 
1494023941.813671, 1494023941.813671, -1.107178, +0.107056, -0.239136, +0.347326, -0.236737, -0.799501 
1494023941.817704, 1494023941.817704, -1.106567, +0.099609, -0.240479, +0.301550, -0.236737, -0.799501 
1494023941.822456, 1494023941.822456, -1.106567, +0.099609, -0.240479, +0.301550, -0.236737, -0.799501 
1494023941.826415, 1494023941.826415, -1.106567, +0.099609, -0.240479, +0.896643, -0.267255, -0.768983 
1494023941.830362, 1494023941.830362, -1.106567, +0.099609, -0.240479, +0.896643, -0.267255, -0.768983 
1494023941.834309, 1494023941.834309, -1.106567, +0.099609, -0.240479, +0.896643, -0.267255, -0.768983 
1494023941.838088, 1494023941.838088, -1.107056, +0.114990, -0.238403, +1.033972, -0.053632, -0.616395 
1494023941.841836, 1494023941.841836, -1.107056, +0.114990, -0.238403, +1.033972, -0.053632, -0.616395 
1494023941.845601, 1494023941.845601, -1.107056, +0.114990, -0.238403, +1.033972, -0.053632, -0.616395 
1494023941.849349, 1494023941.849349, -1.107056, +0.114990, -0.238403, +0.225256, -0.206220, -1.028383 
1494023941.853099, 1494023941.853099, -1.107056, +0.114990, -0.238403, +0.225256, -0.206220, -1.028383 
1494023941.857211, 1494023941.857211, -1.104370, +0.102661, -0.239746, +0.225256, -0.206220, -1.196229 
1494023941.860964, 1494023941.860964, -1.104370, +0.102661, -0.239746, -0.201990, -0.129926, -1.196229 
1494023941.864745, 1494023941.864745, -1.104370, +0.102661, -0.239746, -0.201990, -0.129926, -1.196229 
1494023941.868681, 1494023941.868681, -1.104370, +0.102661, -0.239746, -0.354578, -0.526654, -0.860536 
1494023941.872628, 1494023941.872628, -1.104370, +0.102661, -0.239746, -0.354578, -0.526654, -0.860536 
1494023941.876611, 1494023941.876611, -1.100342, +0.103149, -0.238525, -0.354578, -0.526654, -0.860536 
1494023941.880552, 1494023941.880552, -1.100342, +0.103149, -0.238525, -0.415613, +0.068438, -0.906312 
1494023941.884500, 1494023941.884500, -1.100342, +0.103149, -0.238525, -0.415613, +0.068438, -0.906312 
1494023941.888268, 1494023941.888268, -1.100342, +0.103149, -0.238525, -0.415613, +0.068438, -0.906312 
1494023941.892021, 1494023941.892021, -1.100342, +0.103149, -0.238525, -0.171473, -0.160444, -0.936830 
1494023941.895794, 1494023941.895794, -1.102539, +0.102051, -0.242920, -0.171473, -0.160444, -0.936830 
1494023941.899547, 1494023941.899547, -1.102539, +0.102051, -0.242920, -0.171473, -0.160444, -0.936830 
1494023941.903291, 1494023941.903291, -1.102539, +0.102051, -0.242920, -0.324060, -0.572431, -0.707948 
1494023941.907211, 1494023941.907211, -1.102539, +0.102051, -0.242920, -0.324060, -0.572431, -0.707948 
1494023941.910961, 1494023941.910961, -1.102539, +0.102051, -0.242920, -0.324060, -0.572431, -0.707948 
1494023941.914835, 1494023941.914835, -1.102539, +0.102051, -0.234985, -0.247766, -0.435102, -0.921571 
1494023941.918778, 1494023941.918778, -1.103149, +0.099976, -0.234985, -0.247766, -0.435102, -0.921571 
1494023941.922728, 1494023941.922728, -1.103149, +0.099976, -0.234985, -0.247766, -0.496137, -0.906312 
1494023941.926659, 1494023941.926659, -1.103149, +0.099976, -0.234985, -0.400354, -0.496137, -0.906312 
1494023941.930408, 1494023941.930408, -1.103149, +0.099976, -0.234985, -0.400354, -0.496137, -0.906312 
1494023941.934151, 1494023941.934151, -1.103149, +0.099976, -0.234985, -0.705530, -0.496137, -0.662172 
1494023941.938044, 1494023941.938044, -1.105713, +0.101318, -0.236450, -0.705530, -0.496137, -0.662172 
1494023941.942652, 1494023941.942652, -1.105713, +0.101318, -0.236450, -0.705530, -0.496137, -0.662172 
1494023941.946496, 1494023941.946496, -1.105713, +0.101318, -0.236450, -1.056482, -0.572431, -0.555360 
1494023941.950436, 1494023941.950436, -1.105713, +0.101318, -0.236450, -1.056482, -0.572431, -0.555360 
1494023941.954495, 1494023941.954495, -1.105713, +0.101318, -0.238647, -1.056482, -0.572431, -0.555360 
1494023941.958447, 1494023941.958447, -1.100708, +0.101440, -0.238647, -1.209070, -0.496137, -0.570619 
1494023941.962387, 1494023941.962387, -1.100708, +0.101440, -0.238647, -1.209070, -0.496137, -0.570619 
1494023941.966249, 1494023941.966249, -1.100708, +0.101440, -0.238647, -1.209070, -0.465619, -0.540101 
1494023941.969989, 1494023941.969989, -1.100708, +0.101440, -0.238647, -1.148035, -0.465619, -0.540101 
1494023941.973731, 1494023941.973731, -1.100708, +0.101440, -0.238647, -1.148035, -0.465619, -0.540101 
1494023941.977531, 1494023941.977531, -1.104858, +0.104370, -0.243286, -1.285364, -0.511396, -0.646913 
1494023941.981281, 1494023941.981281, -1.104858, +0.104370, -0.243286, -1.285364, -0.511396, -0.646913 
1494023941.985146, 1494023941.985146, -1.104858, +0.104370, -0.243286, -1.285364, -0.511396, -0.646913 
1494023941.988909, 1494023941.988909, -1.104858, +0.104370, -0.243286, -1.544764, -0.633466, -0.601136 
1494023941.992660, 1494023941.992660, -1.104858, +0.104370, -0.243286, -1.544764, -0.633466, -0.601136 
1494023941.996751, 1494023941.996751, -1.101318, +0.103394, -0.238037, -1.544764, -0.633466, -0.601136 
1494023942.000503, 1494023942.000503, -1.101318, +0.103394, -0.238037, -1.666834, -0.480878, -0.723207 
1494023942.004245, 1494023942.004245, -1.101318, +0.103394, -0.238037, -1.666834, -0.480878, -0.723207 
1494023942.008181, 1494023942.008181, -1.101318, +0.103394, -0.238037, -1.666834, -0.480878, -0.723207 
1494023942.012890, 1494023942.012890, -1.101318, +0.103394, -0.238037, -1.743128, -0.633466, -0.967347 
1494023942.016849, 1494023942.016849, -1.101685, +0.101074, -0.243774, -1.743128, -0.633466, -0.967347 
1494023942.020797, 1494023942.020797, -1.101685, +0.101074, -0.243774, -1.743128, -0.496137, -1.211488 
1494023942.024749, 1494023942.024749, -1.101685, +0.101074, -0.243774, -1.926233, -0.496137, -1.211488 
1494023942.028695, 1494023942.028695, -1.101685, +0.101074, -0.243774, -1.926233, -0.496137, -1.211488 
1494023942.032637, 1494023942.032637, -1.101685, +0.101074, -0.243774, -2.277185, -0.679242, -1.150453 
1494023942.036541, 1494023942.036541, -1.103027, +0.104370, -0.238403, -2.277185, -0.679242, -1.150453 
1494023942.040288, 1494023942.040288, -1.103027, +0.104370, -0.238403, -2.277185, -0.679242, -1.150453 
1494023942.044029, 1494023942.044029, -1.103027, +0.104370, -0.238403, -2.261927, -0.786054, -1.455629 
1494023942.047787, 1494023942.047787, -1.103027, +0.104370, -0.238403, -2.261927, -0.786054, -1.455629 
1494023942.051535, 1494023942.051535, -1.103027, +0.104370, -0.238403, -2.261927, -0.786054, -1.455629 
1494023942.055349, 1494023942.055349, -1.105225, +0.103638, -0.240112, -1.788904, -0.816571, -1.715028 
1494023942.059091, 1494023942.059091, -1.105225, +0.103638, -0.240112, -1.788904, -0.816571, -1.715028 
1494023942.062837, 1494023942.062837, -1.105225, +0.103638, -0.240112, -1.788904, -0.816571, -1.715028 
1494023942.066956, 1494023942.066956, -1.105225, +0.103638, -0.240112, -1.193811, -1.014936, -1.882875 
1494023942.070707, 1494023942.070707, -1.105225, +0.103638, -0.240112, -1.193811, -1.014936, -1.882875 
1494023942.074451, 1494023942.074451, -1.104492, +0.090698, -0.234741, -1.193811, -1.014936, -1.745546 
1494023942.078519, 1494023942.078519, -1.104492, +0.090698, -0.234741, -0.476648, -1.152265, -1.745546 
1494023942.091024, 1494023942.091024, -1.104492, +0.090698, -0.234741, +0.362585, -1.274335, -1.837098 
1494023942.095098, 1494023942.095098, -1.104126, +0.100708, -0.235474, +0.362585, -1.274335, -1.837098 
1494023942.098848, 1494023942.098848, -1.104126, +0.100708, -0.235474, +0.606726, -1.121747, -2.035463 
1494023942.102597, 1494023942.102597, -1.104126, +0.100708, -0.235474, +0.606726, -1.121747, -2.035463 
1494023942.106375, 1494023942.106375, -1.104126, +0.100708, -0.235474, +0.606726, -1.121747, -2.035463 
1494023942.110122, 1494023942.110122, -1.104126, +0.100708, -0.235474, +0.332067, -0.847089, -2.081239 
1494023942.113991, 1494023942.113991, -1.109253, +0.089233, -0.240845, +0.332067, -0.847089, -2.081239 
1494023942.117780, 1494023942.117780, -1.109253, +0.089233, -0.240845, -0.217249, -0.709760, -1.852357 
1494023942.132020, 1494023942.132020, -1.109253, +0.101929, -0.247925, -0.507166, -0.999677, -2.050721 
1494023942.141145, 1494023942.141145, -1.096436, +0.101929, -0.247925, +0.423620, -1.167524, -2.249086 
1494023942.144953, 1494023942.144953, -1.096436, +0.101929, -0.247925, +0.423620, -1.167524, -2.249086 
1494023942.148707, 1494023942.148707, -1.096436, +0.101929, -0.247925, +0.423620, -1.167524, -2.249086 
1494023942.152451, 1494023942.152451, -1.096436, +0.101929, -0.247925, +0.942419, -0.679242, -2.233827 
1494023942.156760, 1494023942.156760, -1.112915, +0.086304, -0.222778, +0.942419, -0.679242, -2.233827 
1494023942.160514, 1494023942.160514, -1.112915, +0.086304, -0.222778, +0.942419, -0.679242, -2.233827 
1494023942.164257, 1494023942.164257, -1.112915, +0.086304, -0.222778, +0.988195, -0.755536, -2.401674 
1494023942.168236, 1494023942.168236, -1.112915, +0.086304, -0.222778, +0.988195, -0.755536, -2.401674 
1494023942.172180, 1494023942.172180, -1.112915, +0.086304, -0.222778, +0.988195, -0.755536, -2.401674 
1494023942.176066, 1494023942.176066, -1.102783, +0.129150, -0.223633, +1.415442, -0.648725, -2.920472 
1494023942.179821, 1494023942.179821, -1.102783, +0.129150, -0.223633, +1.415442, -0.648725, -2.920472 
1494023942.183571, 1494023942.183571, -1.102783, +0.129150, -0.223633, +1.415442, -0.648725, -3.774965 
1494023942.187350, 1494023942.187350, -1.102783, +0.129150, -0.223633, -0.339319, -0.450361, -3.774965 
1494023942.191093, 1494023942.191093, -1.102783, +0.129150, -0.223633, -0.339319, -0.450361, -3.774965 
1494023942.196174, 1494023942.196174, -1.100830, +0.104858, -0.231201, -2.399256, +0.068438, -4.644715 
1494023942.199916, 1494023942.199916, -1.100830, +0.104858, -0.231201, -2.399256, +0.068438, -4.644715 
1494023942.203661, 1494023942.203661, -1.100830, +0.104858, -0.231201, -2.399256, +0.068438, -4.644715 
1494023942.207412, 1494023942.207412, -1.100830, +0.104858, -0.231201, -2.933313, +0.297320, -5.529725 
1494023942.211147, 1494023942.211147, -1.100830, +0.104858, -0.231201, -2.933313, +0.297320, -5.529725 
1494023942.214939, 1494023942.214939, -1.089966, +0.100952, -0.247192, -2.933313, +0.297320, -5.529725 
1494023942.218684, 1494023942.218684, -1.089966, +0.100952, -0.247192, -3.070642, +0.190509, -6.323182 
1494023942.222425, 1494023942.222425, -1.089966, +0.100952, -0.247192, -3.070642, +0.190509, -6.323182 
1494023942.226172, 1494023942.226172, -1.089966, +0.100952, -0.247192, -3.070642, +0.190509, -6.323182 
1494023942.229916, 1494023942.229916, -1.089966, +0.100952, -0.247192, -1.773645, +0.297320, -7.482850 
1494023942.233658, 1494023942.233658, -1.118896, +0.114136, -0.233887, -1.773645, +0.297320, -7.482850 
1494023942.237467, 1494023942.237467, -1.118896, +0.114136, -0.233887, -1.773645, +0.297320, -7.482850 
1494023942.241221, 1494023942.241221, -1.118896, +0.114136, -0.233887, -0.873377, +0.053180, -8.566224 
1494023942.245113, 1494023942.245113, -1.118896, +0.114136, -0.233887, -0.873377, +0.053180, -8.566224 
1494023942.249058, 1494023942.249058, -1.118896, +0.114136, -0.233887, -0.873377, +0.053180, -9.832704 
1494023942.253006, 1494023942.253006, -1.098267, +0.114746, -0.248291, -0.781824, -0.129926, -9.832704 
1494023942.257154, 1494023942.257154, -1.098267, +0.114746, -0.248291, -0.781824, -0.129926, -9.832704 
1494023942.260903, 1494023942.260903, -1.098267, +0.114746, -0.248291, -1.041224, -0.175702, -11.282289 
1494023942.264657, 1494023942.264657, -1.098267, +0.114746, -0.248291, -1.041224, -0.175702, -11.282289 
1494023942.268743, 1494023942.268743, -1.098267, +0.114746, -0.248291, -1.041224, -0.175702, -11.282289 
1494023942.273342, 1494023942.273342, -1.096558, +0.101440, -0.227539, -0.964930, -0.297773, -12.808167 
1494023942.277258, 1494023942.277258, -1.096558, +0.101440, -0.227539, -0.964930, -0.297773, -12.808167 
1494023942.281538, 1494023942.281538, -1.096558, +0.101440, -0.227539, -0.964930, -0.297773, -16.714418 
1494023942.285428, 1494023942.285428, -1.096558, +0.101440, -0.227539, -1.254847, -0.053632, -14.349305 
1494023942.289177, 1494023942.289177, -1.096558, +0.101440, -0.227539, -1.254847, -0.053632, -14.349305 
1494023942.294032, 1494023942.294032, -1.087646, +0.105835, -0.225830, -1.621058, +0.144732, -15.707337 
1494023942.298546, 1494023942.298546, -1.087646, +0.105835, -0.225830, -1.621058, +0.144732, -15.707337 
1494023942.302289, 1494023942.302289, -1.087646, +0.105835, -0.225830, -1.621058, +0.144732, -15.707337 
1494023942.306568, 1494023942.306568, -1.087646, +0.105835, -0.225830, -1.529505, +0.510943, -17.462099 
1494023942.310925, 1494023942.310925, -1.087646, +0.105835, -0.225830, -1.529505, +0.510943, -17.462099 
1494023942.314672, 1494023942.314672, -1.109253, +0.099365, -0.235229, -1.529505, +0.694049, -19.354189 
1494023942.318495, 1494023942.318495, -1.109253, +0.099365, -0.235229, -2.139856, +0.694049, -19.354189 
1494023942.322853, 1494023942.322853, -1.109253, +0.099365, -0.235229, -2.139856, +0.694049, -19.354189 
1494023942.326604, 1494023942.326604, -1.109253, +0.099365, -0.235229, -2.002527, +0.922930, -21.566713 
1494023942.330352, 1494023942.330352, -1.109253, +0.099365, -0.235229, -2.002527, +0.922930, -21.566713 
1494023942.335391, 1494023942.335391, -1.116943, +0.174072, -0.238281, -2.002527, +0.922930, -21.566713 
1494023942.339129, 1494023942.339129, -1.116943, +0.174072, -0.238281, -2.338221, +1.655352, -23.107851 
1494023942.342870, 1494023942.342870, -1.116943, +0.174072, -0.238281, -2.338221, +1.655352, -23.107851 
1494023942.346614, 1494023942.346614, -1.116943, +0.174072, -0.238281, -2.338221, +1.655352, -23.107851 
1494023942.350634, 1494023942.350634, -1.116943, +0.174072, -0.238281, -4.779627, +2.982867, -24.710024 
1494023942.355224, 1494023942.355224, -1.131836, +0.044189, -0.229004, -4.779627, +2.982867, -24.710024 
1494023942.358964, 1494023942.358964, -1.131836, +0.044189, -0.229004, -5.130579, +3.227008, -25.488222 
1494023942.362700, 1494023942.362700, -1.131836, +0.044189, -0.229004, -5.130579, +3.227008, -25.488222 
1494023942.366450, 1494023942.366450, -1.131836, +0.044189, -0.229004, -5.130579, +3.227008, -25.488222 
1494023942.370187, 1494023942.370187, -1.131836, +0.044189, -0.229004, -3.345301, +2.937091, -25.198305 
1494023942.373922, 1494023942.373922, -1.085815, -0.000854, -0.229248, -3.345301, +2.937091, -25.198305 
1494023942.377714, 1494023942.377714, -1.085815, -0.000854, -0.229248, -3.345301, +2.937091, -25.198305 
1494023942.381449, 1494023942.381449, -1.085815, -0.000854, -0.229248, -2.918055, +2.860797, -24.298037 
1494023942.385232, 1494023942.385232, -1.085815, -0.000854, -0.229248, -2.918055, +2.860797, -24.298037 
1494023942.388972, 1494023942.388972, -1.085815, -0.000854, -0.229248, -2.918055, +2.860797, -24.298037 
1494023942.392712, 1494023942.392712, -1.104614, +0.003052, -0.243530, -1.865198, +2.341998, -23.672426 
1494023942.396520, 1494023942.396520, -1.104614, +0.003052, -0.243530, -1.865198, +2.341998, -23.672426 
1494023942.400277, 1494023942.400277, -1.104614, +0.003052, -0.243530, -1.865198, +2.341998, -23.672426 
1494023942.404028, 1494023942.404028, -1.104614, +0.003052, -0.243530, -1.041224, +2.341998, -22.848452 
1494023942.408019, 1494023942.408019, -1.104614, +0.003052, -0.243530, -1.041224, +2.341998, -22.848452 
1494023942.411961, 1494023942.411961, -1.114990, +0.032593, -0.251831, -1.041224, +2.341998, -22.848452 
1494023942.415860, 1494023942.415860, -1.114990, +0.032593, -0.251831, -1.743128, +2.464068, -22.680605 
1494023942.419610, 1494023942.419610, -1.114990, +0.032593, -0.251831, -1.743128, +2.464068, -22.680605 
1494023942.423352, 1494023942.423352, -1.114990, +0.032593, -0.251831, -1.743128, +2.464068, -23.138369 
1494023942.427219, 1494023942.427219, -1.114990, +0.032593, -0.251831, -0.354578, +2.418292, -23.138369 
1494023942.431104, 1494023942.431104, -1.114990, +0.001343, -0.206421, -0.354578, +2.418292, -23.138369 
1494023942.435012, 1494023942.435012, -1.057739, +0.024536, -0.206421, +1.003454, +2.967608, -23.382509 
1494023942.439081, 1494023942.439081, -1.057739, +0.024536, -0.206421, +1.003454, +2.967608, -23.382509 
1494023942.443017, 1494023942.443017, -1.057739, +0.024536, -0.206421, +1.003454, +2.967608, -23.382509 
1494023942.447060, 1494023942.447060, -1.057739, +0.024536, -0.206421, -0.293543, +3.791583, -23.260439 
1494023942.451009, 1494023942.451009, -1.057739, -0.017334, -0.231323, -0.293543, +3.791583, -23.260439 
1494023942.454994, 1494023942.454994, -1.110718, -0.017334, -0.231323, -0.293543, +3.791583, -23.260439 
1494023942.458941, 1494023942.458941, -1.110718, -0.017334, -0.231323, -1.132776, +4.005206, -22.985781 
1494023942.462910, 1494023942.462910, -1.110718, -0.017334, -0.231323, -1.132776, +4.005206, -22.985781 
1494023942.466760, 1494023942.466760, -1.110718, -0.017334, -0.231323, -1.132776, +4.005206, -23.184145 
1494023942.470514, 1494023942.470514, -1.110718, -0.017334, -0.265991, -2.536585, +3.730548, -23.184145 
1494023942.474426, 1494023942.474426, -1.104858, +0.023804, -0.265991, -2.536585, +3.730548, -23.184145 
1494023942.478729, 1494023942.478729, -1.104858, +0.023804, -0.265991, -4.993250, +4.340899, -22.940004 
1494023942.483274, 1494023942.483274, -1.104858, +0.023804, -0.265991, -4.993250, +4.340899, -22.940004 
1494023942.487234, 1494023942.487234, -1.104858, +0.023804, -0.265991, -4.993250, +4.340899, -22.940004 
1494023942.491182, 1494023942.491182, -1.092651, -0.006592, -0.258301, -6.839563, +4.218829, -23.687685 
1494023942.495105, 1494023942.495105, -1.092651, -0.006592, -0.258301, -6.839563, +4.218829, -23.687685 
1494023942.498859, 1494023942.498859, -1.092651, -0.006592, -0.258301, -6.839563, +4.218829, -23.687685 
1494023942.502615, 1494023942.502615, -1.092651, -0.006592, -0.258301, -7.098963, +3.989947, -24.114931 
1494023942.506376, 1494023942.506376, -1.092651, -0.006592, -0.258301, -7.098963, +3.989947, -24.114931 
1494023942.510903, 1494023942.510903, -1.155151, -0.013184, -0.246094, -7.098963, +3.562701, -25.106752 
1494023942.514657, 1494023942.514657, -1.133545, -0.013184, -0.246094, -4.871180, +3.562701, -25.106752 
1494023942.518468, 1494023942.518468, -1.133545, -0.013184, -0.246094, -4.871180, +3.562701, -25.106752 
1494023942.522221, 1494023942.522221, -1.133545, -0.013184, -0.246094, -2.261927, +2.372515, -26.174868 
1494023942.526034, 1494023942.526034, -1.133545, -0.013184, -0.246094, -2.261927, +2.372515, -26.174868 
1494023942.529921, 1494023942.529921, -1.133545, -0.013184, -0.241211, -2.261927, +2.372515, -26.174868 
1494023942.533804, 1494023942.533804, -1.123291, +0.060303, -0.241211, -1.254847, +2.067340, -28.234804 
1494023942.537592, 1494023942.537592, -1.123291, +0.060303, -0.241211, -1.254847, +2.067340, -28.234804 
1494023942.541348, 1494023942.541348, -1.123291, +0.060303, -0.241211, -1.254847, +2.067340, -28.234804 
1494023942.545136, 1494023942.545136, -1.123291, +0.060303, -0.241211, -3.406336, +2.647174, -30.844057 
1494023942.548895, 1494023942.548895, -1.123291, +0.060303, -0.241211, -3.406336, +2.647174, -30.844057 
1494023942.552641, 1494023942.552641, -1.015747, -0.012085, -0.252563, -3.406336, +2.647174, -30.844057 
1494023942.556495, 1494023942.556495, -1.015747, -0.012085, -0.252563, -8.258631, +4.981769, -33.300720 
1494023942.560446, 1494023942.560446, -1.015747, -0.012085, -0.252563, -8.258631, +4.981769, -33.300720 
1494023942.564389, 1494023942.564389, -1.015747, -0.012085, -0.252563, -8.258631, +4.981769, -33.300720 
1494023942.568168, 1494023942.568168, -1.015747, -0.012085, -0.252563, -11.874964, +6.019366, -35.574280 
1494023942.571926, 1494023942.571926, -1.128296, -0.042847, -0.278076, -11.874964, +6.019366, -35.574280 
1494023942.575727, 1494023942.575727, -1.128296, -0.042847, -0.278076, -11.874964, +6.019366, -36.154114 
1494023942.579672, 1494023942.579672, -1.128296, -0.042847, -0.278076, -11.874964, +4.707110, -36.154114 
1494023942.583618, 1494023942.583618, -1.128296, -0.042847, -0.278076, -11.874964, +4.707110, -36.154114 
1494023942.587467, 1494023942.587467, -1.128296, -0.042847, -0.278076, -11.157801, +3.989947, -36.489807 
1494023942.591341, 1494023942.591341, -1.143433, -0.064087, -0.280640, -11.157801, +3.989947, -36.489807 
1494023942.595186, 1494023942.595186, -1.143433, -0.064087, -0.280640, -11.157801, +3.989947, -36.489807 
1494023942.598945, 1494023942.598945, -1.143433, -0.064087, -0.280640, -7.663538, +2.799762, -36.321960 
1494023942.602698, 1494023942.602698, -1.143433, -0.064087, -0.280640, -7.663538, +2.799762, -36.321960 
1494023942.606552, 1494023942.606552, -1.143433, -0.064087, -0.280640, -7.663538, +2.799762, -36.321960 
1494023942.610500, 1494023942.610500, -1.156738, -0.072266, -0.260620, -3.726770, +1.380694, -36.642395 
1494023942.614444, 1494023942.614444, -1.156738, -0.072266, -0.260620, -3.726770, +1.380694, -36.642395 
1494023942.618246, 1494023942.618246, -1.156738, -0.072266, -0.260620, -3.726770, +1.380694, -36.642395 
1494023942.621989, 1494023942.621989, -1.156738, -0.072266, -0.260620, +0.042150, +0.190509, -37.893616 
1494023942.625826, 1494023942.625826, -1.156738, -0.072266, -0.260620, +0.042150, +0.190509, -37.893616 
1494023942.629771, 1494023942.629771, -1.156738, -0.003296, -0.264404, +0.042150, +0.190509, -37.893616 
1494023942.633716, 1494023942.633716, -1.082764, -0.003296, -0.264404, +1.827429, -0.541913, -39.480530 
1494023942.637526, 1494023942.637526, -1.082764, -0.003296, -0.264404, +1.827429, -0.541913, -39.480530 
1494023942.641275, 1494023942.641275, -1.082764, -0.003296, -0.264404, +1.827429, -0.541913, -42.044006 
1494023942.645155, 1494023942.645155, -1.082764, -0.003296, -0.264404, +0.072668, -1.091230, -42.044006 
1494023942.648917, 1494023942.648917, -1.082764, -0.003296, -0.295654, +0.072668, -1.091230, -42.044006 
1494023942.652662, 1494023942.652662, -1.000488, -0.061401, -0.288086, -3.833582, +0.190509, -45.416199 
1494023942.656561, 1494023942.656561, -1.000488, -0.061401, -0.288086, -6.137659, +0.190509, -45.416199 
1494023942.660504, 1494023942.660504, -1.000488, -0.061401, -0.288086, -6.137659, +0.190509, -45.416199 
1494023942.664995, 1494023942.664995, -1.000488, -0.061401, -0.288086, -10.730555, +0.480426, -47.140442 
1494023942.669294, 1494023942.669294, -1.000488, -0.186401, -0.242920, -10.730555, +0.480426, -47.140442 
1494023942.673050, 1494023942.673050, -1.107910, -0.167603, -0.242920, -10.730555, +0.480426, -47.140442 
1494023942.676922, 1494023942.676922, -1.107910, -0.167603, -0.242920, -9.128382, -0.160444, -47.628723 
1494023942.680869, 1494023942.680869, -1.107910, -0.167603, -0.242920, -9.128382, -0.160444, -47.628723 
1494023942.684820, 1494023942.684820, -1.107910, -0.167603, -0.242920, -9.128382, -0.160444, -47.384583 
1494023942.688776, 1494023942.688776, -1.107910, -0.167603, -0.261841, -4.962732, -0.877607, -47.384583 
1494023942.692726, 1494023942.692726, -1.169678, -0.097412, -0.261841, -4.962732, -0.877607, -47.384583 
1494023942.696595, 1494023942.696595, -1.169678, -0.097412, -0.261841, -1.956751, -2.647626, -47.750793 
1494023942.700350, 1494023942.700350, -1.169678, -0.097412, -0.261841, -1.956751, -2.647626, -47.750793 
1494023942.704978, 1494023942.704978, -1.169678, -0.097412, -0.261841, -1.956751, -2.647626, -47.750793 
1494023942.708935, 1494023942.708935, -1.169678, -0.159912, -0.266846, -1.544764, -2.556073, -47.857605 
1494023942.712878, 1494023942.712878, -1.114136, -0.162354, -0.266846, -1.544764, -2.556073, -47.857605 
1494023942.716734, 1494023942.716734, -1.114136, -0.162354, -0.266846, -1.544764, -2.556073, -47.857605 
1494023942.720492, 1494023942.720492, -1.114136, -0.162354, -0.266846, -1.743128, -3.593671, -47.811829 
1494023942.724238, 1494023942.724238, -1.114136, -0.162354, -0.266846, -1.743128, -3.593671, -47.811829 
1494023942.728165, 1494023942.728165, -1.114136, -0.162354, -0.266846, -1.743128, -3.593671, -47.048889 
1494023942.732111, 1494023942.732111, -1.038452, -0.214966, -0.209229, -0.873377, -4.280316, -47.048889 
1494023942.736016, 1494023942.736016, -1.038452, -0.214966, -0.209229, -0.873377, -4.280316, -47.048889 
1494023942.739763, 1494023942.739763, -1.038452, -0.214966, -0.209229, -0.873377, -4.966962, -46.194397 
1494023942.743630, 1494023942.743630, -1.038452, -0.214966, -0.209229, +0.225256, -4.966962, -46.194397 
1494023942.747535, 1494023942.747535, -1.038452, -0.214966, -0.209229, +0.225256, -4.966962, -46.194397 
1494023942.751281, 1494023942.751281, -1.000977, -0.164429, -0.244019, -2.216150, -5.394208, -44.790588 
1494023942.755124, 1494023942.755124, -1.000977, -0.164429, -0.244019, -2.216150, -5.394208, -44.790588 
1494023942.758890, 1494023942.758890, -1.000977, -0.164429, -0.244019, -2.216150, -5.394208, -44.790588 
1494023942.762646, 1494023942.762646, -1.000977, -0.164429, -0.244019, -7.266809, -4.875409, -42.974792 
1494023942.766486, 1494023942.766486, -1.000977, -0.164429, -0.244019, -7.266809, -4.875409, -42.974792 
1494023942.771057, 1494023942.771057, -1.080322, -0.219849, -0.259888, -7.266809, -4.875409, -42.974792 
1494023942.774814, 1494023942.774814, -1.080322, -0.219849, -0.259888, -10.196497, -4.585492, -40.045105 
1494023942.778762, 1494023942.778762, -1.080322, -0.219849, -0.259888, -10.196497, -4.585492, -40.045105 
1494023942.782703, 1494023942.782703, -1.080322, -0.219849, -0.259888, -10.196497, -4.585492, -35.620056 
1494023942.786666, 1494023942.786666, -1.080322, -0.219849, -0.259888, -8.502771, -5.043256, -35.620056 
1494023942.790620, 1494023942.790620, -1.103760, -0.255859, -0.194092, -8.502771, -5.043256, -35.620056 
1494023942.794560, 1494023942.794560, -1.103760, -0.255859, -0.194092, -6.656458, -6.309735, -30.081118 
1494023942.798511, 1494023942.798511, -1.103760, -0.255859, -0.194092, -6.656458, -6.309735, -30.081118 
1494023942.802452, 1494023942.802452, -1.103760, -0.255859, -0.194092, -6.656458, -6.309735, -30.081118 
1494023942.806330, 1494023942.806330, -1.103760, -0.255859, -0.194092, -8.960535, -7.469403, -21.765078 
1494023942.810074, 1494023942.810074, -1.133789, -0.484009, -0.296143, -8.960535, -7.469403, -21.765078 
1494023942.813814, 1494023942.813814, -1.133789, -0.484009, -0.296143, -8.960535, -7.469403, -21.765078 
1494023942.817664, 1494023942.817664, -1.133789, -0.484009, -0.296143, -7.709314, -8.552777, -7.589662 
1494023942.821409, 1494023942.821409, -1.133789, -0.484009, -0.296143, -7.709314, -8.552777, -7.589662 
1494023942.825322, 1494023942.825322, -1.133789, -0.484009, -0.296143, -7.709314, -8.552777, -7.589662 
1494023942.829273, 1494023942.829273, -1.298706, -0.575928, -0.164429, +1.842688, -10.780560, +12.826598 
1494023942.833219, 1494023942.833219, -1.298706, -0.575928, -0.164429, +1.842688, -10.780560, +12.826598 
1494023942.837223, 1494023942.837223, -1.298706, -0.575928, -0.164429, +1.842688, -10.780560, +33.822693 
1494023942.841172, 1494023942.841172, -1.298706, -0.575928, -0.164429, +5.336950, -11.741864, +33.822693 
1494023942.845327, 1494023942.845327, -1.298706, -0.575928, -0.164429, +5.336950, -11.741864, +33.822693 
1494023942.849224, 1494023942.849224, -1.568970, -0.513550, +0.062012, -1.453211, -9.330976, +52.972473 
1494023942.853738, 1494023942.853738, -1.568970, -0.513550, +0.062012, -1.453211, -9.330976, +52.972473 
1494023942.857556, 1494023942.857556, -1.568970, -0.513550, +0.062012, -1.453211, -9.330976, +52.972473 
1494023942.861309, 1494023942.861309, -1.568970, -0.513550, +0.062012, -9.845545, -7.499921, +74.426331 
1494023942.865085, 1494023942.865085, -1.568970, -0.513550, +0.062012, -9.845545, -7.499921, +74.426331 
1494023942.869035, 1494023942.869035, -2.032715, -0.767578, -0.071289, -9.845545, -7.499921, +74.426331 
1494023942.872983, 1494023942.872983, -2.032715, -0.767578, -0.071289, -5.374720, -11.696088, +102.121033 
1494023942.876829, 1494023942.876829, -2.032715, -0.767578, -0.071289, -5.374720, -11.696088, +102.121033 
1494023942.881385, 1494023942.881385, -2.032715, -0.767578, -0.071289, +14.156530, -20.805586, +133.081116 
1494023942.885198, 1494023942.885198, -2.032715, -0.767578, -0.071289, +16.704748, -20.805586, +133.081116 
1494023942.888959, 1494023942.888959, -2.693604, -0.211914, -0.251587, +16.704748, -20.805586, +133.081116 
1494023942.892720, 1494023942.892720, -2.693604, -0.211914, -0.251587, +39.119911, -30.723799, +162.057556 
1494023942.896702, 1494023942.896702, -2.693604, -0.211914, -0.251587, +39.119911, -30.723799, +162.057556 
1494023942.900658, 1494023942.900658, -2.693604, -0.211914, -0.251587, +39.119911, -30.723799, +162.057556 
1494023942.904608, 1494023942.904608, -2.693604, -0.211914, -0.251587, +54.897499, -35.804974, +184.594788 
1494023942.908367, 1494023942.908367, -2.909912, +1.156494, -0.427002, +54.897499, -35.804974, +184.594788 
1494023942.912127, 1494023942.912127, -2.909912, +1.156494, -0.427002, +54.897499, -35.804974, +184.594788 
1494023942.915887, 1494023942.915887, -2.909912, +1.156494, -0.427002, +66.982460, -33.470379, +205.514587 
1494023942.919647, 1494023942.919647, -2.909912, +1.156494, -0.427002, +66.982460, -33.470379, +205.514587 
1494023942.923393, 1494023942.923393, -2.909912, +1.156494, -0.427002, +66.982460, -33.470379, +205.514587 
1494023942.927260, 1494023942.927260, -2.909912, +1.156494, -0.070068, +76.595497, -26.878584, +228.921570 
1494023942.931015, 1494023942.931015, -1.916748, +1.801392, -0.070068, +76.595497, -26.878584, +228.921570 
1494023942.934842, 1494023942.934842, -1.916748, +1.801392, -0.070068, +76.595497, -26.878584, +256.265320 
1494023942.938866, 1494023942.938866, -1.916748, +1.801392, -0.070068, +95.714760, -18.318403, +255.975403 
1494023942.942618, 1494023942.942618, -1.916748, +1.801392, -0.070068, +95.714760, -18.318403, +255.975403 
1494023942.946525, 1494023942.946525, -1.916748, +1.801392, -0.070068, +95.714760, -9.453046, +278.741516 
1494023942.951236, 1494023942.951236, -1.455933, -0.032227, -0.336304, +114.071083, -9.453046, +278.741516 
1494023942.955190, 1494023942.955190, -1.455933, -0.032227, -0.336304, +114.071083, -9.453046, +278.741516 
1494023942.958950, 1494023942.958950, -1.455933, -0.032227, -0.336304, +112.316322, +2.586138, +250.329651 
1494023942.962702, 1494023942.962702, -1.455933, -0.032227, -0.336304, +112.316322, +2.586138, +250.329651 
1494023942.966554, 1494023942.966554, -1.455933, -0.032227, -1.055054, +112.316322, +2.586138, +250.329651 
1494023942.970498, 1494023942.970498, -0.139648, -3.896729, -1.033325, +89.702797, +3.516925, +154.977478 
1494023942.974438, 1494023942.974438, -0.139648, -3.896729, -1.033325, +89.702797, +3.516925, +154.977478 
1494023942.978425, 1494023942.978425, -0.139648, -3.896729, -1.033325, +89.702797, +3.516925, +18.365538 
1494023942.982619, 1494023942.982619, -0.139648, -3.896729, -1.033325, +101.009560, -24.696577, +18.365538 
1494023942.986531, 1494023942.986531, -0.139648, -3.896729, -0.439575, +101.009560, -24.696577, +18.365538 
1494023942.990281, 1494023942.990281, -0.466187, +0.189209, -0.445923, +65.853310, -21.614302, -72.241150 
1494023942.994047, 1494023942.994047, -0.466187, +0.189209, -0.445923, +64.769936, -21.614302, -72.241150 
1494023942.998630, 1494023942.998630, -0.466187, +0.189209, -0.445923, +64.769936, -21.614302, -72.241150 
1494023943.002582, 1494023943.002582, -0.466187, +0.189209, -0.445923, +11.135290, -13.160932, -95.007263 
1494023943.006450, 1494023943.006450, -0.466187, +0.189209, +0.085327, +11.135290, -13.160932, -95.007263 
1494023943.010211, 1494023943.010211, -0.333618, -0.064209, +0.071777, +11.135290, -13.160932, -95.007263 
1494023943.013963, 1494023943.013963, -0.333618, -0.064209, +0.071777, -16.162683, -12.947309, -89.041077 
1494023943.017744, 1494023943.017744, -0.333618, -0.064209, +0.071777, -16.162683, -12.947309, -89.041077 
1494023943.022269, 1494023943.022269, -0.333618, -0.064209, +0.071777, -16.162683, -12.947309, -80.282532 
1494023943.026110, 1494023943.026110, -0.333618, -0.064209, +0.071777, -39.340782, -9.758222, -80.282532 
1494023943.030122, 1494023943.030122, -0.116699, +0.567749, +0.072266, -39.340782, -9.758222, -80.282532 
1494023943.034597, 1494023943.034597, -0.116699, +0.567749, +0.072266, -60.077477, -4.066693, -64.428650 
1494023943.038549, 1494023943.038549, -0.116699, +0.567749, +0.072266, -60.077477, -4.066693, -64.428650 
1494023943.042502, 1494023943.042502, -0.116699, +0.567749, +0.072266, -60.077477, -4.066693, -64.428650 
1494023943.046613, 1494023943.046613, -0.116699, +0.598999, -0.143799, -79.990196, +4.768146, -43.569885 
1494023943.050564, 1494023943.050564, +0.045288, +0.619995, -0.143799, -79.990196, +4.768146, -43.569885 
1494023943.054508, 1494023943.054508, +0.045288, +0.619995, -0.143799, -79.990196, +4.768146, -43.569885 
1494023943.058285, 1494023943.058285, +0.045288, +0.619995, -0.143799, -99.063683, +13.190997, -21.581972 
1494023943.062045, 1494023943.062045, +0.045288, +0.619995, -0.143799, -99.063683, +13.190997, -21.581972 
1494023943.065815, 1494023943.065815, +0.045288, +0.619995, -0.143799, -99.063683, +13.190997, -1.333558 
1494023943.069567, 1494023943.069567, -0.074585, -0.028198, -0.235718, -96.286583, +13.969195, -1.333558 
1494023943.073316, 1494023943.073316, -0.074585, -0.028198, -0.235718, -96.286583, +13.969195, -1.333558 
1494023943.077235, 1494023943.077235, -0.074585, -0.028198, -0.235718, -96.286583, +5.134356, +17.678892 
1494023943.080990, 1494023943.080990, -0.074585, -0.028198, -0.235718, -56.705284, +5.134356, +17.678892 
1494023943.084845, 1494023943.084845, -0.074585, -0.028198, -0.235718, -56.705284, +5.134356, +17.678892 
1494023943.088791, 1494023943.088791, -0.108643, +0.276978, +0.052490, -20.450403, -2.266156, +31.610167 
1494023943.092742, 1494023943.092742, -0.108643, +0.276978, +0.052490, -20.450403, -2.266156, +31.610167 
1494023943.096702, 1494023943.096702, -0.108643, +0.276978, +0.052490, -20.450403, -2.266156, +31.610167 
1494023943.100648, 1494023943.100648, -0.108643, +0.276978, +0.052490, +7.457922, -5.699384, +36.996521 
1494023943.104595, 1494023943.104595, -0.108643, +0.276978, +0.052490, +7.457922, -5.699384, +36.996521 
1494023943.108355, 1494023943.108355, -0.110596, +0.048218, -0.144287, +7.457922, -5.699384, +36.996521 
1494023943.112101, 1494023943.112101, -0.110596, +0.048218, -0.144287, +26.531408, -5.241620, +36.676086 
1494023943.115854, 1494023943.115854, -0.110596, +0.048218, -0.144287, +26.531408, -5.241620, +36.676086 
1494023943.119601, 1494023943.119601, -0.110596, +0.048218, -0.144287, +26.531408, -5.241620, +36.676086 
1494023943.123350, 1494023943.123350, -0.110596, +0.048218, -0.144287, +39.287758, -3.624189, +32.373108 
1494023943.127259, 1494023943.127259, -0.171631, -0.254517, -0.145996, +39.287758, -3.624189, +32.373108 
1494023943.131208, 1494023943.131208, -0.171631, -0.254517, -0.145996, +39.287758, -3.624189, +24.758970 
1494023943.135202, 1494023943.135202, -0.171631, -0.254517, -0.145996, +48.259926, -4.631269, +24.758970 
1494023943.139153, 1494023943.139153, -0.171631, -0.254517, -0.145996, +48.259926, -4.631269, +24.758970 
1494023943.143207, 1494023943.143207, -0.171631, -0.254517, -0.145996, +51.204872, -8.949506, +8.828795 
1494023943.162397, 1494023943.162397, -0.209961, -0.185303, -0.057861, +54.271889, -5.851972, +8.828795 
1494023943.166252, 1494023943.166252, -0.241211, -0.265015, +0.003418, +52.852821, -6.263959, +2.221740 
1494023943.170194, 1494023943.170194, -0.235107, -0.265015, +0.003418, +52.852821, -6.263959, +2.221740 
1494023943.174145, 1494023943.174145, -0.235107, -0.265015, +0.003418, +52.852821, -6.263959, -7.238709 
1494023943.178574, 1494023943.178574, -0.235107, -0.265015, +0.003418, +43.331337, -5.455243, -7.238709 
1494023943.182790, 1494023943.182790, -0.235107, -0.265015, +0.003418, +43.331337, -5.455243, -7.238709 
1494023943.186597, 1494023943.186597, -0.176636, -0.195679, +0.010986, +22.686193, -3.853070, -18.743837 
1494023943.190335, 1494023943.190335, -0.176636, -0.195679, +0.010986, +22.686193, -3.853070, -18.743837 
1494023943.194079, 1494023943.194079, -0.176636, -0.195679, +0.010986, +22.686193, -3.853070, -18.743837 
1494023943.197875, 1494023943.197875, -0.176636, -0.195679, +0.010986, -11.295130, +1.609576, -32.156311 
1494023943.201624, 1494023943.201624, -0.176636, -0.195679, +0.010986, -11.295130, +1.609576, -32.156311 
1494023943.205416, 1494023943.205416, -0.176636, -1.883179, -0.114990, -11.295130, +1.609576, -32.156311 
1494023943.209798, 1494023943.209798, -0.308838, -1.876465, -0.114990, -42.316246, +8.826983, -49.841248 
1494023943.213753, 1494023943.213753, -0.308838, -1.876465, -0.114990, -42.316246, +8.826983, -49.841248 
1494023943.217526, 1494023943.217526, -0.308838, -1.876465, -0.114990, -42.316246, +8.826983, -49.841248 
1494023943.221275, 1494023943.221275, -0.308838, -1.876465, -0.114990, -55.896568, +13.496173, -91.116272 
1494023943.225057, 1494023943.225057, -0.308838, -1.876465, -1.697754, -55.896568, +13.496173, -91.116272 
1494023943.228999, 1494023943.228999, -2.759521, -3.999023, -1.697754, -55.896568, +13.496173, -169.241272 
1494023943.232947, 1494023943.232947, -2.759521, -3.999023, -1.697754, -58.246422, +42.747272, -168.798767 
1494023943.244638, 1494023943.244638, -2.759521, -3.999023, -0.790649, +56.728554, +0.770343, -219.412170 
1494023943.249178, 1494023943.249178, -2.122559, +3.998779, -0.790649, +56.728554, +0.770343, -219.412170 
1494023943.252940, 1494023943.252940, -2.122559, +3.998779, -0.790649, +42.141151, -15.617597, -127.157532 
1494023943.256747, 1494023943.256747, -2.122559, +3.998779, -0.790649, +42.141151, -15.617597, -127.157532 
1494023943.260505, 1494023943.260505, -2.122559, +3.998779, -0.790649, +42.141151, -15.617597, -127.157532 
1494023943.264269, 1494023943.264269, -2.122559, +3.998779, -0.790649, -28.201868, +37.635578, -54.098450 
1494023943.268082, 1494023943.268082, -0.543701, +0.605591, -2.068970, -28.201868, +37.635578, -54.098450 
1494023943.271834, 1494023943.271834, -0.543701, +0.605591, -2.068970, -28.201868, +37.635578, -54.098450 
1494023943.275951, 1494023943.275951, -0.543701, +0.605591, -2.068970, -157.260712, +64.246902, -89.285217 
1494023943.279706, 1494023943.279706, -0.543701, +0.605591, -2.068970, -157.260712, +64.246902, -89.285217 
1494023943.283447, 1494023943.283447, -0.543701, +0.605591, -2.068970, -157.260712, +64.246902, -85.378967 
1494023943.287205, 1494023943.287205, -2.770386, -0.699341, -0.168457, -79.456139, +34.171833, -83.700500 
1494023943.290957, 1494023943.290957, -2.770386, -0.699341, -0.168457, -79.456139, +34.171833, -83.700500 
1494023943.295242, 1494023943.295242, -2.770386, -0.699341, -0.168457, +100.231361, -18.699873, -25.793398 
1494023943.298992, 1494023943.298992, -2.770386, -0.699341, -0.168457, +100.078773, -18.699873, -25.793398 
1494023943.303027, 1494023943.303027, -2.770386, -0.699341, -0.168457, +100.078773, -18.699873, -25.793398 
1494023943.306789, 1494023943.306789, -3.999023, +2.127686, +1.991577, +113.308144, -49.659954, -43.783508 
1494023943.310542, 1494023943.310542, -3.999023, +2.127686, +1.991577, +113.308144, -49.659954, -43.783508 
1494023943.315119, 1494023943.315119, -3.999023, +2.127686, +1.991577, +113.308144, -49.659954, -43.783508 
1494023943.318884, 1494023943.318884, -3.999023, +2.127686, +1.991577, -4.489710, -4.616010, -82.891785 
1494023943.322621, 1494023943.322621, -3.999023, +2.127686, +1.991577, -4.489710, -4.616010, -82.891785 
1494023943.326372, 1494023943.326372, -0.647217, -0.101440, -0.008057, -4.489710, -4.616010, -82.891785 
1494023943.330120, 1494023943.330120, -0.647217, -0.101440, -0.008057, -152.744110, +40.504230, -78.298889 
1494023943.333876, 1494023943.333876, -0.647217, -0.101440, -0.008057, -152.744110, +40.504230, -78.298889 
1494023943.337672, 1494023943.337672, -0.647217, -0.101440, -0.008057, -152.744110, +40.504230, -78.298889 
1494023943.341414, 1494023943.341414, -0.647217, -0.101440, -0.008057, -194.492157, +52.558674, -61.697327 
1494023943.345225, 1494023943.345225, -0.699097, -2.235107, -0.877686, -194.492157, +52.558674, -61.697327 
1494023943.348971, 1494023943.348971, -0.699097, -2.235107, -0.877686, -194.492157, +52.558674, -23.611391 
1494023943.353153, 1494023943.353153, -0.699097, -2.235107, -0.877686, -106.174278, +27.885210, -23.611391 
1494023943.356953, 1494023943.356953, -0.699097, -2.235107, -0.877686, -106.174278, +27.885210, -23.611391 
1494023943.361128, 1494023943.361128, -0.699097, -2.235107, -0.877686, +9.197424, +5.042804, +28.146421 
1494023943.364926, 1494023943.364926, -0.752930, -0.677246, -0.813354, +9.197424, +5.042804, +28.146421 
1494023943.368795, 1494023943.368795, -0.752930, -0.677246, -0.813354, +9.197424, +5.042804, +28.146421 
1494023943.372528, 1494023943.372528, -0.752930, -0.677246, -0.813354, +87.505531, -13.984906, +67.071594 
1494023943.376326, 1494023943.376326, -0.752930, -0.677246, -0.813354, +87.505531, -13.984906, +67.071594 
1494023943.380069, 1494023943.380069, -0.752930, -0.677246, -0.813354, +87.505531, -13.984906, +67.071594 
1494023943.383820, 1494023943.383820, -0.752930, -0.677246, -0.082275, +104.000282, -24.315107, +78.668274 
1494023943.388733, 1494023943.388733, -1.416016, +0.265015, -0.082275, +104.000282, -24.315107, +78.668274 
1494023943.393545, 1494023943.393545, -1.416016, +0.265015, -0.082275, +72.887611, -20.393599, +81.048645 
1494023943.397729, 1494023943.397729, -1.416016, +0.265015, -0.082275, +72.887611, -20.393599, +81.048645 
1494023943.401773, 1494023943.401773, -1.416016, +0.265015, -0.082275, +72.887611, -20.393599, +81.048645 
1494023943.405611, 1494023943.405611, -1.201050, +0.147339, -0.040894, +25.066565, -10.551679, +76.593079 
1494023943.409751, 1494023943.409751, -1.201050, +0.147339, -0.040894, +25.066565, -10.551679, +76.593079 
1494023943.413909, 1494023943.413909, -1.201050, +0.147339, -0.040894, +25.066565, -10.551679, +76.593079 
1494023943.417715, 1494023943.417715, -1.201050, +0.147339, -0.040894, -11.386683, -2.617109, +69.543518 
1494023943.421467, 1494023943.421467, -1.201050, +0.147339, -0.040894, -11.386683, -2.617109, +69.543518 
1494023943.425226, 1494023943.425226, -1.055054, -0.011719, -0.231445, -11.386683, +1.151812, +66.751160 
1494023943.429474, 1494023943.429474, -1.055054, -0.011719, -0.231445, -33.496666, +1.151812, +66.751160 
1494023943.433213, 1494023943.433213, -1.055054, -0.011719, -0.231445, -33.496666, +1.151812, +66.751160 
1494023943.437148, 1494023943.437148, -1.055054, -0.011719, -0.231445, -40.363121, -0.541913, +68.124451 
1494023943.441509, 1494023943.441509, -1.055054, -0.011719, -0.231445, -40.363121, -0.541913, +68.124451 
1494023943.445265, 1494023943.445265, -0.958252, -0.117188, -0.316162, -40.363121, -0.541913, +68.124451 
1494023943.449016, 1494023943.449016, -0.958252, -0.117188, -0.316162, -28.247644, -5.012738, +68.872131 
1494023943.452759, 1494023943.452759, -0.958252, -0.117188, -0.316162, -28.247644, -5.012738, +68.872131 
1494023943.456577, 1494023943.456577, -0.958252, -0.117188, -0.316162, -28.247644, -5.012738, +68.872131 
1494023943.460328, 1494023943.460328, -0.958252, -0.117188, -0.316162, -7.144739, -9.666669, +68.826355 
1494023943.464070, 1494023943.464070, -0.927002, +0.053223, -0.334961, -7.144739, -9.666669, +68.826355 
1494023943.467863, 1494023943.467863, -0.908325, +0.053223, -0.334961, -7.144739, -9.666669, +68.826355 
1494023943.471604, 1494023943.471604, -0.908325, +0.053223, -0.334961, +10.692785, -12.718427, +66.888489 
1494023943.475431, 1494023943.475431, -0.908325, +0.053223, -0.334961, +10.692785, -12.718427, +66.888489 
1494023943.479179, 1494023943.479179, -0.908325, +0.053223, -0.334961, +10.692785, -12.718427, +66.888489 
1494023943.482930, 1494023943.482930, -0.908325, +0.053223, -0.272461, +13.622473, -12.642133, +62.570251 
1494023943.486941, 1494023943.486941, -0.982422, +0.262695, -0.271240, +13.622473, -12.642133, +62.570251 
1494023943.490696, 1494023943.490696, -0.982422, +0.262695, -0.271240, +13.622473, -12.642133, +54.803528 
1494023943.494435, 1494023943.494435, -0.982422, +0.262695, -0.271240, +4.650305, -10.383832, +54.803528 
1494023943.498317, 1494023943.498317, -0.982422, +0.262695, -0.271240, +4.650305, -10.383832, +54.803528 
1494023943.502065, 1494023943.502065, -0.982422, +0.262695, -0.271240, +4.650305, -7.194745, +45.739807 
1494023943.506022, 1494023943.506022, -0.987549, +0.350464, -0.162964, -8.701136, -7.194745, +45.739807 
1494023943.509769, 1494023943.509769, -0.987549, +0.350464, -0.162964, -8.701136, -7.194745, +45.739807 
1494023943.514446, 1494023943.514446, -0.987549, +0.350464, -0.162964, -22.250940, -3.105390, +38.232483 
1494023943.518584, 1494023943.518584, -0.987549, +0.350464, -0.162964, -22.250940, -3.105390, +38.232483 
1494023943.522530, 1494023943.522530, -0.987549, +0.350464, -0.162964, -22.250940, -3.105390, +38.232483 
1494023943.526491, 1494023943.526491, -1.131592, +0.190186, -0.125000, -30.933191, +0.358355, +31.320250 
1494023943.530446, 1494023943.530446, -1.131592, +0.190186, -0.125000, -30.933191, +0.358355, +31.320250 
1494023943.534391, 1494023943.534391, -1.131592, +0.190186, -0.125000, -30.933191, +4.264606, +26.147520 
1494023943.538178, 1494023943.538178, -1.131592, +0.190186, -0.125000, -34.030724, +2.708209, +26.147520 
1494023943.541936, 1494023943.541936, -1.131592, +0.190186, -0.125000, -34.030724, +2.708209, +26.147520 
1494023943.545746, 1494023943.545746, -1.189941, +0.138672, -0.131958, -30.124475, +3.822100, +22.744810 
1494023943.549497, 1494023943.549497, -1.189941, +0.138672, -0.131958, -32.321739, +3.822100, +22.744810 
1494023943.553249, 1494023943.553249, -1.189941, +0.138672, -0.131958, -32.321739, +3.822100, +22.744810 
1494023943.557447, 1494023943.557447, -1.189941, +0.138672, -0.131958, -28.903772, +4.371417, +20.272886 
1494023943.562145, 1494023943.562145, -1.189941, +0.138672, -0.131958, -28.903772, +4.371417, +20.272886 
1494023943.566743, 1494023943.566743, -1.171997, +0.132568, -0.185547, -28.903772, +4.371417, +18.869078 
1494023943.570690, 1494023943.570690, -1.171997, +0.132568, -0.185547, -24.829676, +4.707110, +18.869078 
1494023943.574637, 1494023943.574637, -1.171997, +0.132568, -0.185547, -24.829676, +4.707110, +18.869078 
1494023943.578636, 1494023943.578636, -1.171997, +0.132568, -0.185547, -16.925623, +4.218829, +17.450010 
1494023943.582945, 1494023943.582945, -1.171997, +0.066162, -0.239624, -16.925623, +4.218829, +17.450010 
1494023943.587041, 1494023943.587041, -1.132812, +0.066162, -0.239624, -16.925623, +4.218829, +17.450010 
1494023943.590803, 1494023943.590803, -1.132812, +0.066162, -0.239624, -5.878260, +2.219928, +16.427671 
1494023943.594550, 1494023943.594550, -1.132812, +0.066162, -0.239624, -5.878260, +2.219928, +16.427671 
1494023943.598308, 1494023943.598308, -1.132812, +0.066162, -0.239624, -5.878260, +2.219928, +16.427671 
1494023943.602072, 1494023943.602072, -1.132812, +0.066162, -0.302124, +2.834509, +0.434649, +15.237487 
1494023943.605895, 1494023943.605895, -1.096680, +0.187256, -0.311279, +2.834509, +0.434649, +15.237487 
1494023943.609854, 1494023943.609854, -1.096680, +0.187256, -0.311279, +2.834509, +0.434649, +15.237487 
1494023943.613801, 1494023943.613801, -1.096680, +0.187256, -0.311279, +6.893347, -1.320112, +13.528502 
1494023943.617758, 1494023943.617758, -1.096680, +0.187256, -0.311279, +6.893347, -1.320112, +13.528502 
1494023943.621700, 1494023943.621700, -1.096680, +0.187256, -0.311279, +6.893347, -2.632367, +11.804259 
1494023943.625977, 1494023943.625977, -1.117554, +0.189331, -0.298828, +8.388708, -2.632367, +11.804259 
1494023943.629731, 1494023943.629731, -1.117554, +0.189331, -0.298828, +8.388708, -2.632367, +11.804259 
1494023943.633479, 1494023943.633479, -1.117554, +0.189331, -0.298828, +9.655188, -4.081952, +9.591735 
1494023943.637405, 1494023943.637405, -1.117554, +0.189331, -0.298828, +9.655188, -4.081952, +9.591735 
1494023943.641999, 1494023943.641999, -1.117554, +0.189331, -0.216553, +9.655188, -4.081952, +9.591735 
1494023943.645952, 1494023943.645952, -1.133789, +0.208984, -0.216553, +9.395788, -5.806195, +7.501281 
1494023943.649701, 1494023943.649701, -1.133789, +0.208984, -0.216553, +9.395788, -5.806195, +7.501281 
1494023943.653442, 1494023943.653442, -1.133789, +0.208984, -0.216553, +9.395788, -5.806195, +7.501281 
1494023943.657201, 1494023943.657201, -1.133789, +0.208984, -0.216553, +8.114050, -5.913007, +5.151427 
1494023943.661090, 1494023943.661090, -1.133789, +0.208984, -0.216553, +8.114050, -5.913007, +5.151427 
1494023943.664840, 1494023943.664840, -1.113159, +0.185181, -0.168335, +8.114050, -5.913007, +2.862609 
1494023943.668586, 1494023943.668586, -1.113159, +0.185181, -0.168335, +5.672644, -4.387128, +2.862609 
1494023943.672466, 1494023943.672466, -1.113159, +0.185181, -0.168335, +5.672644, -4.387128, +2.862609 
1494023943.676303, 1494023943.676303, -1.113159, +0.185181, -0.168335, +1.766394, -1.930463, +0.283873 
1494023943.680245, 1494023943.680245, -1.113159, +0.185181, -0.168335, +2.880285, -1.930463, +0.283873 
1494023943.684189, 1494023943.684189, -1.077148, +0.156982, -0.161743, +2.880285, -1.930463, +0.283873 
1494023943.688140, 1494023943.688140, -1.077148, +0.156982, -0.161743, +2.575109, -0.145185, -1.806581 
1494023943.692089, 1494023943.692089, -1.077148, +0.156982, -0.161743, +2.575109, -0.145185, -1.806581 
1494023943.696585, 1494023943.696585, -1.077148, +0.156982, -0.161743, +2.575109, -0.145185, -1.806581 
1494023943.700549, 1494023943.700549, -1.077148, +0.156982, -0.161743, -1.285364, +1.121295, -3.240907 
1494023943.704292, 1494023943.704292, -1.082031, +0.144531, -0.209473, -1.285364, +1.121295, -3.240907 
1494023943.708083, 1494023943.708083, -1.082031, +0.144531, -0.209473, -1.285364, +1.121295, -3.240907 
1494023943.711816, 1494023943.711816, -1.082031, +0.144531, -0.209473, -6.107141, +2.830279, -4.476869 
1494023943.715600, 1494023943.715600, -1.082031, +0.144531, -0.209473, -6.107141, +2.830279, -4.476869 
1494023943.719343, 1494023943.719343, -1.082031, +0.144531, -0.209473, -6.107141, +2.830279, -4.492127 
1494023943.723398, 1494023943.723398, -1.101074, +0.099609, -0.243896, -6.152918, +3.165972, -4.492127 
1494023943.727983, 1494023943.727983, -1.101074, +0.099609, -0.243896, -6.152918, +3.165972, -4.492127 
1494023943.732207, 1494023943.732207, -1.101074, +0.099609, -0.243896, -4.733850, +2.341998, -4.110658 
1494023943.735997, 1494023943.735997, -1.101074, +0.099609, -0.243896, -4.733850, +2.341998, -4.110658 
1494023943.739740, 1494023943.739740, -1.101074, +0.099609, -0.243896, -4.733850, +2.341998, -4.110658 
1494023943.744368, 1494023943.744368, -1.102661, +0.057861, -0.236572, -2.399256, +0.327838, -3.134095 
1494023943.748124, 1494023943.748124, -1.102661, +0.057861, -0.236572, -2.399256, +0.327838, -3.134095 
1494023943.751873, 1494023943.751873, -1.102661, +0.057861, -0.236572, -2.399256, +0.327838, -3.134095 
1494023943.755636, 1494023943.755636, -1.102661, +0.057861, -0.236572, +1.156042, -1.014936, -2.142274 
1494023943.759377, 1494023943.759377, -1.102661, +0.057861, -0.236572, +1.156042, -1.014936, -2.142274 
1494023943.763119, 1494023943.763119, -1.100098, +0.145020, -0.213257, +1.156042, -4.921185, -1.379335 
1494023943.766933, 1494023943.766933, -1.100098, +0.145020, -0.213257, +3.627966, -1.945722, -1.379335 
1494023943.770683, 1494023943.770683, -1.100098, +0.145020, -0.213257, +3.627966, -1.945722, -1.379335 
1494023943.774420, 1494023943.774420, -1.100098, +0.145020, -0.213257, +3.627966, -1.213300, -1.577699 
1494023943.778170, 1494023943.778170, -1.100098, +0.145020, -0.213257, +3.353308, -1.213300, -1.577699 
1494023943.781908, 1494023943.781908, -1.101318, +0.164429, -0.204468, +3.353308, -1.213300, -1.577699 
1494023943.785757, 1494023943.785757, -1.101318, +0.164429, -0.204468, +1.323889, -0.557172, -2.859437 
1494023943.789504, 1494023943.789504, -1.101318, +0.164429, -0.204468, +1.323889, -0.557172, -2.859437 
1494023943.793235, 1494023943.793235, -1.101318, +0.164429, -0.204468, +1.323889, -0.557172, -2.859437 
1494023943.797068, 1494023943.797068, -1.101318, +0.164429, -0.204468, +0.194738, +0.358355, -3.988588 
1494023943.800814, 1494023943.800814, -1.101318, +0.164429, -0.218872, +0.194738, +0.358355, -3.988588 
1494023943.804565, 1494023943.804565, -1.110596, +0.125854, -0.218872, +0.194738, +0.358355, -3.988588 
1494023943.808488, 1494023943.808488, -1.110596, +0.125854, -0.218872, +0.789831, +0.907672, -4.766786 
1494023943.812412, 1494023943.812412, -1.110596, +0.125854, -0.218872, +0.789831, +0.907672, -4.766786 
1494023943.816323, 1494023943.816323, -1.110596, +0.125854, -0.218872, +0.789831, +0.907672, -4.766786 
1494023943.820214, 1494023943.820214, -1.110596, +0.125854, -0.218872, +1.995275, +0.678790, -5.773866 
1494023943.824362, 1494023943.824362, -1.104370, +0.144775, -0.239014, +1.995275, +0.678790, -5.773866 
1494023943.828148, 1494023943.828148, -1.104370, +0.144775, -0.239014, +1.995275, +0.678790, -5.773866 
1494023943.831896, 1494023943.831896, -1.104370, +0.144775, -0.239014, +3.048132, -0.221479, -6.506288 
1494023943.835751, 1494023943.835751, -1.104370, +0.144775, -0.239014, +3.048132, -0.221479, -6.506288 
1494023943.839503, 1494023943.839503, -1.104370, +0.144775, -0.239014, +3.048132, -0.221479, -7.315003 
1494023943.843249, 1494023943.843249, -1.099976, +0.168457, -0.222290, +3.231237, -0.694501, -7.315003 
1494023943.847081, 1494023943.847081, -1.099976, +0.168457, -0.222290, +3.231237, -0.694501, -7.315003 
1494023943.850953, 1494023943.850953, -1.099976, +0.168457, -0.222290, +2.086828, -1.030195, -8.154237 
1494023943.854745, 1494023943.854745, -1.099976, +0.168457, -0.222290, +2.086828, -1.030195, -8.154237 
1494023943.858686, 1494023943.858686, -1.099976, +0.168457, -0.222290, +2.086828, -1.030195, -8.154237 
1494023943.862630, 1494023943.862630, -1.107422, +0.119629, -0.216064, +0.621984, -0.923383, -9.130799 
1494023943.866618, 1494023943.866618, -1.107422, +0.119629, -0.216064, +0.621984, -0.923383, -9.130799 
1494023943.870566, 1494023943.870566, -1.107422, +0.119629, -0.216064, +0.621984, -0.923383, -9.130799 
1494023943.874510, 1494023943.874510, -1.107422, +0.119629, -0.216064, -0.873377, -0.465619, -9.466493 
1494023943.878460, 1494023943.878460, -1.107422, +0.119629, -0.216064, -0.873377, -0.465619, -9.466493 
1494023943.882398, 1494023943.882398, -1.117920, +0.098511, -0.198730, -0.873377, -0.465619, -5.560243 
1494023943.886263, 1494023943.886263, -1.117920, +0.098511, -0.198730, -1.254847, -0.129926, -9.252870 
1494023943.890010, 1494023943.890010, -1.117920, +0.098511, -0.198730, -1.254847, -0.129926, -9.252870 
1494023943.893900, 1494023943.893900, -1.117920, +0.098511, -0.198730, -1.071741, +0.266803, -9.023988 
1494023943.899247, 1494023943.899247, -1.117920, +0.098511, -0.198730, -1.071741, +0.266803, -9.023988 
1494023943.903165, 1494023943.903165, -1.119019, +0.089478, -0.201660, -1.071741, +0.266803, -9.023988 
1494023943.907104, 1494023943.907104, -1.119019, +0.089478, -0.201660, -0.339319, +0.892413, -8.535707 
1494023943.911020, 1494023943.911020, -1.119019, +0.089478, -0.201660, -0.339319, +0.892413, -8.535707 
1494023943.914994, 1494023943.914994, -1.119019, +0.089478, -0.201660, -0.339319, +0.892413, -8.535707 
1494023943.918885, 1494023943.918885, -1.119019, +0.089478, -0.201660, +0.423620, +1.151812, -8.169496 
1494023943.924181, 1494023943.924181, -1.110840, +0.108276, -0.215698, +0.423620, +1.151812, -8.169496 
1494023943.927976, 1494023943.927976, -1.110840, +0.108276, -0.215698, +0.759314, +1.304400, -8.047425 
1494023943.932354, 1494023943.932354, -1.110840, +0.108276, -0.215698, +0.759314, +1.304400, -8.047425 
1494023943.936154, 1494023943.936154, -1.110840, +0.108276, -0.215698, +0.759314, +1.304400, -8.047425 
1494023943.939907, 1494023943.939907, -1.110840, +0.108276, -0.220703, +1.506994, +1.289141, -8.093202 
1494023943.943653, 1494023943.943653, -1.109131, +0.100708, -0.220703, +1.506994, +1.289141, -8.093202 
1494023943.947412, 1494023943.947412, -1.109131, +0.100708, -0.220703, +1.506994, +1.289141, -8.093202 
1494023943.951154, 1494023943.951154, -1.109131, +0.100708, -0.220703, +2.346228, +1.212847, -8.245790 
1494023943.954951, 1494023943.954951, -1.109131, +0.100708, -0.220703, +2.346228, +1.212847, -8.245790 
1494023943.958698, 1494023943.958698, -1.109131, +0.100708, -0.220703, +2.346228, +1.212847, -8.245790 
1494023943.962444, 1494023943.962444, -1.105469, +0.101685, -0.236694, +3.887365, +1.045001, -8.612000 
1494023943.966482, 1494023943.966482, -1.105469, +0.101685, -0.236694, +3.887365, +1.045001, -8.612000 
1494023943.970228, 1494023943.970228, -1.105469, +0.101685, -0.236694, +3.887365, +1.045001, -9.405457 
1494023943.973975, 1494023943.973975, -1.105469, +0.101685, -0.236694, +5.840490, +0.617755, -9.405457 
1494023943.977894, 1494023943.977894, -1.105469, +0.101685, -0.236694, +5.840490, +0.617755, -9.405457 
1494023943.981956, 1494023943.981956, -1.101807, +0.118530, -0.222168, +7.366369, +0.587237, -10.656678 
1494023943.985859, 1494023943.985859, -1.101807, +0.118530, -0.222168, +7.366369, +0.587237, -10.656678 
1494023943.989608, 1494023943.989608, -1.101807, +0.118530, -0.222168, +7.366369, +0.587237, -10.656678 
1494023943.993356, 1494023943.993356, -1.101807, +0.118530, -0.222168, +8.770178, +0.785601, -12.167298 
1494023943.997258, 1494023943.997258, -1.101807, +0.118530, -0.222168, +8.770178, +0.785601, -12.167298 
1494023944.001211, 1494023944.001211, -1.112793, +0.113037, -0.213623, +8.770178, +0.785601, -12.167298 
1494023944.005187, 1494023944.005187, -1.112793, +0.113037, -0.213623, +10.723303, +0.999224, -14.364564 
1494023944.021448, 1494023944.021448, -1.089233, +0.181274, -0.210327, +12.432287, +0.236285, -16.699160 
1494023944.026491, 1494023944.026491, -1.089233, +0.181274, -0.210327, +12.172888, +1.029742, -19.674623 
1494023944.030446, 1494023944.030446, -1.089233, +0.181274, -0.210327, +12.172888, +1.029742, -19.674623 
1494023944.034397, 1494023944.034397, -1.089233, +0.181274, -0.210327, +12.172888, +1.029742, -19.674623 
1494023944.038160, 1494023944.038160, -1.089233, +0.181274, -0.210327, +9.014318, +2.662432, -22.909487 
1494023944.041909, 1494023944.041909, -1.110229, +0.088501, -0.226685, +9.014318, +2.662432, -22.909487 
1494023944.045672, 1494023944.045672, -1.110229, +0.088501, -0.226685, +9.014318, +2.662432, -22.909487 
1494023944.049427, 1494023944.049427, -1.110229, +0.088501, -0.226685, +8.739660, +2.601397, -26.205385 
1494023944.053177, 1494023944.053177, -1.110229, +0.088501, -0.226685, +8.739660, +2.601397, -26.205385 
1494023944.056963, 1494023944.056963, -1.110229, +0.088501, -0.226685, +8.739660, +2.601397, -29.013002 
1494023944.060718, 1494023944.060718, -1.115479, +0.105957, -0.224609, +10.982702, +2.204669, -29.013002 
1494023944.065546, 1494023944.065546, -1.115479, +0.105957, -0.224609, +10.982702, +2.204669, -29.013002 
1494023944.069854, 1494023944.069854, -1.115479, +0.105957, -0.224609, +13.408850, +1.258624, -32.858215 
1494023944.073672, 1494023944.073672, -1.115479, +0.105957, -0.224609, +13.408850, +1.258624, -32.858215 
1494023944.078199, 1494023944.078199, -1.115479, +0.105957, -0.224609, +13.408850, +1.258624, -32.858215 
1494023944.082334, 1494023944.082334, -1.110596, +0.149048, -0.235352, +14.232824, +0.922930, -37.344299 
1494023944.086235, 1494023944.086235, -1.110596, +0.149048, -0.235352, +14.232824, +0.922930, -37.344299 
1494023944.090142, 1494023944.090142, -1.110596, +0.149048, -0.235352, +14.232824, +0.983966, -43.157898 
1494023944.093973, 1494023944.093973, -1.110596, +0.149048, -0.235352, +15.514563, +0.983966, -43.157898 
1494023944.097972, 1494023944.097972, -1.110596, +0.149048, -0.204102, +15.514563, +0.983966, -43.157898 
1494023944.102263, 1494023944.102263, -1.120117, +0.235840, -0.213989, +16.231726, +1.579058, -49.108826 
1494023944.106095, 1494023944.106095, -1.120117, +0.235840, -0.213989, +16.231726, +1.579058, -49.108826 
1494023944.109936, 1494023944.109936, -1.120117, +0.235840, -0.213989, +16.231726, +1.579058, -49.108826 
1494023944.113685, 1494023944.113685, -1.120117, +0.235840, -0.213989, +16.063879, +1.777423, -54.632507 
1494023944.117528, 1494023944.117528, -1.120117, +0.235840, -0.213989, +16.063879, +1.777423, -54.632507 
1494023944.121272, 1494023944.121272, -1.145386, +0.160156, -0.211670, +16.063879, +1.777423, -54.632507 
1494023944.125067, 1494023944.125067, -1.145386, +0.160156, -0.211670, +14.476965, +2.128375, -59.652649 
1494023944.128813, 1494023944.128813, -1.145386, +0.160156, -0.211670, +14.476965, +2.128375, -59.652649 
1494023944.132573, 1494023944.132573, -1.145386, +0.160156, -0.211670, +14.476965, +2.128375, -59.652649 
1494023944.136374, 1494023944.136374, -1.145386, +0.160156, -0.211670, +12.676428, +2.189410, -64.611755 
1494023944.140121, 1494023944.140121, -1.181152, +0.146729, -0.215332, +12.676428, +2.189410, -64.611755 
1494023944.143871, 1494023944.143871, -1.181152, +0.146729, -0.215332, +12.676428, +2.189410, -67.999207 
1494023944.148760, 1494023944.148760, -1.181152, +0.146729, -0.215332, +9.029577, +1.853717, -67.999207 
1494023944.152632, 1494023944.152632, -1.181152, +0.146729, -0.215332, +9.029577, +1.853717, -67.999207 
1494023944.156476, 1494023944.156476, -1.181152, +0.146729, -0.215332, +5.703161, -0.892865, -71.050964 
1494023944.160424, 1494023944.160424, -1.226807, +0.019653, -0.238770, +5.703161, -0.892865, -71.050964 
1494023944.164379, 1494023944.164379, -1.226807, +0.019653, -0.238770, +5.703161, -0.892865, -71.050964 
1494023944.168333, 1494023944.168333, -1.226807, +0.019653, -0.238770, +3.673742, -4.387128, -75.094543 
1494023944.172276, 1494023944.172276, -1.226807, +0.019653, -0.238770, +3.673742, -4.387128, -75.094543 
1494023944.176778, 1494023944.176778, -1.226807, +0.019653, -0.238770, +3.673742, -4.387128, -77.978455 
1494023944.180530, 1494023944.180530, -1.128052, +0.038208, -0.307373, +2.788733, -6.996381, -77.978455 
1494023944.184287, 1494023944.184287, -1.128052, +0.038208, -0.307373, +2.788733, -6.996381, -77.978455 
1494023944.188083, 1494023944.188083, -1.128052, +0.038208, -0.307373, +2.788733, -6.996381, -79.595886 
1494023944.191844, 1494023944.191844, -1.128052, +0.038208, -0.307373, +1.033972, -7.026898, -79.595886 
1494023944.195650, 1494023944.195650, -1.128052, +0.038208, -0.307373, +1.033972, -7.026898, -79.595886 
1494023944.199599, 1494023944.199599, -1.093506, -0.025024, -0.258911, +2.224157, -7.744061, -82.372986 
1494023944.204231, 1494023944.204231, -1.093506, -0.025024, -0.258911, +2.224157, -7.744061, -82.372986 
1494023944.208055, 1494023944.208055, -1.093506, -0.025024, -0.258911, +2.224157, -7.744061, -82.372986 
1494023944.212069, 1494023944.212069, -1.093506, -0.025024, -0.258911, +1.079748, -8.049237, -84.234558 
1494023944.215903, 1494023944.215903, -1.093506, -0.025024, -0.258911, +1.079748, -8.049237, -84.234558 
1494023944.220789, 1494023944.220789, -1.104614, -0.176147, -0.284302, +1.079748, -8.049237, -83.807312 
1494023944.224537, 1494023944.224537, -1.104614, -0.176147, -0.284302, -4.688074, -7.240521, -83.807312 
1494023944.228908, 1494023944.228908, -1.104614, -0.176147, -0.284302, -4.688074, -7.240521, -83.807312 
1494023944.234399, 1494023944.234399, -1.104614, -0.176147, -0.284302, -6.290247, -7.698285, -84.158264 
1494023944.238148, 1494023944.238148, -1.104614, -0.182617, -0.200806, -6.290247, -7.698285, -84.158264 
1494023944.241892, 1494023944.241892, -1.135498, -0.182617, -0.200806, -6.290247, -7.698285, -84.158264 
1494023944.245869, 1494023944.245869, -1.135498, -0.182617, -0.200806, +0.301550, -10.551679, -83.807312 
1494023944.250375, 1494023944.250375, -1.135498, -0.182617, -0.200806, +0.301550, -10.551679, -83.807312 
1494023944.254122, 1494023944.254122, -1.135498, -0.182617, -0.200806, +2.376745, -10.597455, -81.945740 
1494023944.257931, 1494023944.257931, -1.135498, -0.199707, -0.205811, +2.376745, -10.597455, -81.945740 
1494023944.262263, 1494023944.262263, -1.046875, -0.199707, -0.205811, +2.376745, -10.597455, -81.945740 
1494023944.266012, 1494023944.266012, -1.046875, -0.199707, -0.205811, -3.665735, -8.613812, -80.465637 
1494023944.269758, 1494023944.269758, -1.046875, -0.199707, -0.205811, -3.665735, -8.613812, -80.465637 
1494023944.273502, 1494023944.273502, -1.046875, -0.199707, -0.205811, -3.665735, -8.613812, -80.465637 
1494023944.277323, 1494023944.277323, -1.046875, -0.199707, -0.121704, -7.343103, -8.659589, -79.138123 
1494023944.281869, 1494023944.281869, -1.140625, -0.258911, -0.121704, -7.343103, -8.659589, -79.138123 
1494023944.285988, 1494023944.285988, -1.140625, -0.258911, -0.121704, -7.343103, -12.565839, -77.017151 
1494023944.289736, 1494023944.289736, -1.140625, -0.258911, -0.121704, -5.664637, -10.963666, -77.017151 
1494023944.293478, 1494023944.293478, -1.140625, -0.258911, -0.121704, -5.664637, -10.963666, -77.017151 
1494023944.297279, 1494023944.297279, -1.140625, -0.258911, -0.157593, -9.570887, -10.368573, -74.713074 
1494023944.301145, 1494023944.301145, -0.817627, -0.220703, -0.157593, -9.876062, -10.368573, -74.713074 
1494023944.304948, 1494023944.304948, -0.817627, -0.220703, -0.157593, -9.876062, -10.368573, -74.713074 
1494023944.308699, 1494023944.308699, -0.817627, -0.220703, -0.157593, -23.151209, -5.363690, -71.264587 
1494023944.312443, 1494023944.312443, -0.817627, -0.220703, -0.157593, -23.151209, -5.363690, -71.264587 
1494023944.316960, 1494023944.316960, -0.817627, -0.220703, -0.156128, -23.151209, -5.363690, -71.264587 
1494023944.320705, 1494023944.320705, -0.743530, -0.594849, -0.156128, -30.063440, -1.060712, -65.634094 
1494023944.324446, 1494023944.324446, -0.743530, -0.594849, -0.156128, -30.063440, -1.060712, -65.634094 
1494023944.328254, 1494023944.328254, -0.743530, -0.594849, -0.156128, -30.063440, -1.060712, -65.634094 
1494023944.331999, 1494023944.331999, -0.743530, -0.594849, -0.156128, -22.556116, -0.221479, -56.661926 
1494023944.335785, 1494023944.335785, -0.743530, -0.594849, -0.156128, -22.556116, -0.221479, -56.661926 
1494023944.339531, 1494023944.339531, -0.591797, -0.585083, -0.198242, -22.556116, -0.221479, -56.661926 
1494023944.343277, 1494023944.343277, -0.591797, -0.585083, -0.198242, -16.010096, +0.144732, -46.499573 
1494023944.347033, 1494023944.347033, -0.591797, -0.585083, -0.198242, -16.010096, +0.144732, -46.499573 
1494023944.350783, 1494023944.350783, -0.591797, -0.585083, -0.198242, -16.010096, +0.144732, -46.499573 
1494023944.354534, 1494023944.354534, -0.591797, -0.585083, -0.198242, -16.681482, +2.662432, -35.787903 
1494023944.358283, 1494023944.358283, -0.804443, -0.616089, -0.191650, -16.681482, +2.662432, -35.787903 
1494023944.362663, 1494023944.362663, -0.804443, -0.616089, -0.191650, -16.681482, +2.830279, -24.542177 
1494023944.366421, 1494023944.366421, -0.804443, -0.616089, -0.191650, -17.505457, +2.830279, -24.542177 
1494023944.370171, 1494023944.370171, -0.804443, -0.616089, -0.191650, -17.505457, +2.830279, -24.542177 
1494023944.373919, 1494023944.373919, -0.804443, -0.616089, -0.191650, -14.728357, +1.273883, -12.396180 
1494023944.377715, 1494023944.377715, -1.087280, -0.460327, -0.303345, -14.728357, +1.273883, -12.396180 
1494023944.381474, 1494023944.381474, -1.087280, -0.460327, -0.303345, -14.728357, +1.273883, -12.396180 
1494023944.385241, 1494023944.385241, -1.087280, -0.460327, -0.303345, -11.371424, +1.426471, +2.053893 
1494023944.388993, 1494023944.388993, -1.087280, -0.460327, -0.303345, -11.371424, +1.426471, +2.053893 
1494023944.392742, 1494023944.392742, -1.087280, -0.460327, -0.303345, -11.371424, +1.426471, +2.053893 
1494023944.396548, 1494023944.396548, -1.087280, -0.460327, -0.311157, -4.566004, -0.313031, +20.486509 
1494023944.400304, 1494023944.400304, -1.432617, -0.613281, -0.311157, -4.566004, -0.313031, +20.486509 
1494023944.404055, 1494023944.404055, -1.432617, -0.613281, -0.311157, -4.566004, -0.313031, +20.486509 
1494023944.407876, 1494023944.407876, -1.432617, -0.613281, -0.311157, +5.016516, -5.684125, +43.420471 
1494023944.411628, 1494023944.411628, -1.432617, -0.613281, -0.311157, +5.016516, -5.684125, +43.420471 
1494023944.415586, 1494023944.415586, -1.432617, -0.613281, -0.311157, +5.016516, -5.684125, +43.420471 
1494023944.419339, 1494023944.419339, -1.854492, -0.658691, -0.075684, +6.313513, -11.482465, +68.200745 
1494023944.423093, 1494023944.423093, -1.854492, -0.658691, -0.075684, +6.313513, -11.482465, +68.200745 
1494023944.427121, 1494023944.427121, -1.854492, -0.658691, -0.075684, +6.313513, -11.482465, +95.544495 
1494023944.432669, 1494023944.432669, -1.854492, -0.658691, -0.075684, +4.512976, -18.043745, +92.324890 
1494023944.436452, 1494023944.436452, -1.854492, -0.408691, +0.225342, +4.512976, -18.043745, +92.324890 
1494023944.440195, 1494023944.440195, -2.383423, -0.435425, +0.225342, -3.192713, -22.239912, +113.641418 
1494023944.443942, 1494023944.443942, -2.383423, -0.435425, +0.225342, -3.192713, -22.239912, +113.641418 
1494023944.447720, 1494023944.447720, -2.383423, -0.435425, +0.225342, -3.192713, -22.239912, +113.641418 
1494023944.452245, 1494023944.452245, -2.383423, -0.435425, +0.225342, -6.305506, -24.452436, +134.927429 
1494023944.456638, 1494023944.456638, -3.102173, +0.018066, +0.023438, -6.305506, -24.452436, +134.927429 
1494023944.461029, 1494023944.461029, -3.117065, +0.018066, +0.023438, +3.490637, -23.964155, +155.252136 
1494023944.464762, 1494023944.464762, -3.117065, +0.018066, +0.023438, +3.490637, -23.964155, +155.252136 
1494023944.468511, 1494023944.468511, -3.117065, +0.018066, +0.023438, +3.490637, -23.964155, +155.252136 
1494023944.472253, 1494023944.472253, -3.117065, +0.018066, +0.023438, +22.930334, -19.081343, +174.646057 
1494023944.476682, 1494023944.476682, -2.797607, +0.949219, -0.175293, +22.930334, -19.081343, +174.646057 
1494023944.481220, 1494023944.481220, -2.797607, +0.949219, -0.175293, +22.930334, -19.081343, +174.646057 
1494023944.485218, 1494023944.485218, -2.797607, +0.949219, -0.175293, +50.564003, -11.848676, +194.268860 
1494023944.488976, 1494023944.488976, -2.797607, +0.949219, -0.175293, +50.564003, -11.848676, +194.268860 
1494023944.492753, 1494023944.492753, -2.797607, +0.949219, -0.175293, +50.564003, -11.848676, +218.637146 
1494023944.496556, 1494023944.496556, -1.603760, +1.500488, -0.029419, +81.218910, -4.600751, +218.637146 
1494023944.500310, 1494023944.500310, -1.603760, +1.500488, -0.029419, +81.218910, -4.600751, +218.637146 
1494023944.504062, 1494023944.504062, -1.603760, +1.500488, -0.029419, +112.468910, -1.869428, +250.970520 
1494023944.507996, 1494023944.507996, -1.603760, +1.500488, -0.029419, +111.187172, -1.869428, +250.970520 
1494023944.511752, 1494023944.511752, -1.603760, +1.500488, -0.029419, +111.187172, -1.869428, +250.970520 
1494023944.515706, 1494023944.515706, -1.603760, -0.062012, -0.336304, +115.841103, -0.496137, +278.802551 
1494023944.519701, 1494023944.519701, -1.206543, -0.038330, -0.336304, +115.841103, -0.496137, +278.802551 
1494023944.523466, 1494023944.523466, -1.206543, -0.038330, -0.336304, +115.841103, -0.496137, +278.802551 
1494023944.527376, 1494023944.527376, -1.206543, -0.038330, -0.336304, +96.111488, +13.953937, +249.276794 
1494023944.532226, 1494023944.532226, -1.206543, -0.038330, -0.336304, +96.111488, +13.953937, +249.276794 
1494023944.536367, 1494023944.536367, -1.571655, -3.526855, -1.032349, +96.111488, +13.953937, +152.444519 
1494023944.540151, 1494023944.540151, -1.571655, -3.526855, -1.032349, +65.288734, +14.396441, +152.444519 
1494023944.544612, 1494023944.544612, -1.571655, -3.526855, -1.032349, +65.288734, +14.396441, +152.444519 
1494023944.548364, 1494023944.548364, -1.571655, -3.526855, -1.032349, +79.113197, -15.449750, +106.469788 
1494023944.552098, 1494023944.552098, -1.571655, -3.526855, -1.032349, +79.113197, -15.449750, +106.469788 
1494023944.555855, 1494023944.555855, -1.571655, -1.123535, -0.492554, +79.113197, -15.449750, +106.469788 
1494023944.559597, 1494023944.559597, -0.111816, -1.123535, -0.492554, +68.615150, -13.283002, +45.236267 
1494023944.563357, 1494023944.563357, -0.111816, -1.123535, -0.492554, +68.615150, -13.283002, +45.236267 
1494023944.567153, 1494023944.567153, -0.111816, -1.123535, -0.492554, +68.615150, -13.283002, +45.236267 
1494023944.570905, 1494023944.570905, -0.111816, -1.123535, -0.492554, +64.663124, -14.061200, -9.680116 
1494023944.574647, 1494023944.574647, -0.111816, -1.123535, -0.492554, +64.663124, -14.061200, -9.680116 
1494023944.578455, 1494023944.578455, -0.410400, -0.314209, -0.082642, +64.663124, -14.061200, -9.680116 
1494023944.582206, 1494023944.582206, -0.410400, -0.314209, -0.082642, +62.694740, -16.899336, -26.678408 
1494023944.586183, 1494023944.586183, -0.410400, -0.314209, -0.082642, +62.694740, -16.899336, -26.678408 
1494023944.589937, 1494023944.589937, -0.410400, -0.314209, -0.082642, +62.694740, -16.899336, -26.678408 
1494023944.593678, 1494023944.593678, -0.410400, -0.314209, -0.082642, +51.128578, -12.596356, -42.257629 
1494023944.597704, 1494023944.597704, -0.091187, -0.131592, -0.326782, +51.128578, -12.596356, -42.257629 
1494023944.601600, 1494023944.601600, -0.091187, -0.131592, -0.326782, +51.128578, -12.596356, -49.597107 
1494023944.605429, 1494023944.605429, -0.091187, -0.131592, -0.326782, +28.423498, -6.370770, -49.597107 
1494023944.609172, 1494023944.609172, -0.091187, -0.131592, -0.326782, +28.423498, -6.370770, -49.597107 
1494023944.612910, 1494023944.612910, -0.091187, -0.131592, -0.326782, +28.423498, +1.441729, -49.520813 
1494023944.616800, 1494023944.616800, +0.030518, +0.583374, -0.115112, -3.894617, +0.510943, -49.520813 
1494023944.620545, 1494023944.620545, +0.030518, +0.583374, -0.115112, -3.894617, +0.510943, -49.520813 
1494023944.624287, 1494023944.624287, +0.030518, +0.583374, -0.115112, -35.968590, +7.987750, -42.196594 
1494023944.628214, 1494023944.628214, +0.030518, +0.583374, -0.115112, -35.968590, +7.987750, -42.196594 
1494023944.633970, 1494023944.633970, +0.030518, +0.583374, -0.115112, -35.968590, +7.987750, -42.196594 
1494023944.637738, 1494023944.637738, +0.064819, +0.442505, -0.047607, -56.323814, +12.611163, -29.669130 
1494023944.642475, 1494023944.642475, +0.064819, +0.442505, -0.047607, -56.323814, +12.611163, -29.669130 
