Calculating the offsets...
timestamp_before, timestamp_after, accel_x, accel_y, accel_z, gyro_x, gyro_y, gyro_z
1488854782.305807, 1488854782.305807, -1.264160, +0.261597, -0.170166, -14.603719, -51.682728, +11.719505 
1488854782.318105, 1488854782.318105, -1.276123, +0.265137, -0.175659, -14.603719, -51.682728, +11.719505 
1488854782.323677, 1488854782.323677, -1.276123, +0.265137, -0.175659, -15.946492, -53.025501, +12.085716 
1488854782.327427, 1488854782.327427, -1.276123, +0.265137, -0.175659, -15.946492, -53.025501, +12.085716 
1488854782.331177, 1488854782.331177, -1.276123, +0.265137, -0.175659, -15.946492, -53.025501, +12.085716 
1488854782.335116, 1488854782.335116, -1.276123, +0.265137, -0.175659, -18.708332, -54.673450, +12.604515 
1488854782.338860, 1488854782.338860, -1.249390, +0.241577, -0.159180, -18.708332, -54.673450, +12.604515 
1488854782.342614, 1488854782.342614, -1.249390, +0.241577, -0.159180, -18.708332, -54.673450, +12.604515 
1488854782.346401, 1488854782.346401, -1.249390, +0.241577, -0.159180, -20.508869, -56.794422, +13.611595 
1488854782.350228, 1488854782.350228, -1.249390, +0.241577, -0.159180, -20.508869, -56.794422, +13.611595 
1488854782.354023, 1488854782.354023, -1.249390, +0.241577, -0.159180, -20.508869, -56.794422, +13.611595 
1488854782.357776, 1488854782.357776, -1.212524, +0.247803, -0.109009, -21.836384, -59.220570, +15.808861 
1488854782.361526, 1488854782.361526, -1.212524, +0.247803, -0.109009, -21.836384, -59.220570, +15.808861 
1488854782.365379, 1488854782.365379, -1.212524, +0.247803, -0.109009, -21.836384, -59.220570, +17.411034 
1488854782.369133, 1488854782.369133, -1.212524, +0.247803, -0.109009, -21.882160, -61.082142, +17.411034 
1488854782.372887, 1488854782.372887, -1.212524, +0.247803, -0.109009, -21.882160, -61.082142, +17.411034 
1488854782.376917, 1488854782.376917, -1.189331, +0.153076, -0.067139, -23.270710, -63.721912, +17.884056 
1488854782.380865, 1488854782.380865, -1.189331, +0.153076, -0.067139, -23.270710, -63.721912, +17.884056 
1488854782.384824, 1488854782.384824, -1.189331, +0.153076, -0.067139, -23.270710, -63.721912, +17.884056 
1488854782.388774, 1488854782.388774, -1.189331, +0.153076, -0.067139, -23.255451, -66.499008, +18.173973 
1488854782.392726, 1488854782.392726, -1.189331, +0.153076, -0.067139, -23.255451, -66.499008, +18.173973 
1488854782.396721, 1488854782.396721, -1.155640, +0.118896, -0.021851, -23.255451, -66.499008, +18.173973 
1488854782.400669, 1488854782.400669, -1.155640, +0.118896, -0.021851, -22.629841, -69.138779, +19.501488 
1488854782.404682, 1488854782.404682, -1.155640, +0.118896, -0.021851, -22.629841, -69.138779, +19.501488 
1488854782.408443, 1488854782.408443, -1.155640, +0.118896, -0.021851, -22.629841, -69.138779, +19.501488 
1488854782.412203, 1488854782.412203, -1.155640, +0.118896, -0.021851, -22.706135, -70.496811, +20.706932 
1488854782.416235, 1488854782.416235, -1.152588, +0.212646, +0.038818, -22.706135, -70.496811, +20.706932 
1488854782.420744, 1488854782.420744, -1.152588, +0.212646, +0.038818, -25.803669, -71.580185, +22.003929 
1488854782.424675, 1488854782.424675, -1.152588, +0.212646, +0.038818, -25.803669, -71.580185, +22.003929 
1488854782.428595, 1488854782.428595, -1.152588, +0.212646, +0.038818, -25.803669, -71.580185, +22.003929 
1488854782.432490, 1488854782.432490, -1.152588, +0.212646, +0.038818, -30.030354, -73.548569, +22.995750 
1488854782.436428, 1488854782.436428, -1.085449, +0.201538, +0.038452, -30.030354, -73.548569, +22.995750 
1488854782.440354, 1488854782.440354, -1.085449, +0.201538, +0.038452, -30.030354, -73.548569, +22.995750 
1488854782.444275, 1488854782.444275, -1.085449, +0.201538, +0.038452, -35.325153, -74.784531, +22.660057 
1488854782.448214, 1488854782.448214, -1.085449, +0.201538, +0.038452, -35.325153, -74.784531, +22.660057 
1488854782.452168, 1488854782.452168, -1.085449, +0.201538, +0.038452, -35.325153, -74.784531, +22.660057 
1488854782.456105, 1488854782.456105, -1.081299, +0.186035, +0.040527, -40.055378, -75.486435, +23.194115 
1488854782.460038, 1488854782.460038, -1.081299, +0.186035, +0.040527, -40.055378, -75.486435, +23.194115 
1488854782.464115, 1488854782.464115, -1.081299, +0.186035, +0.040527, -42.451008, -77.195419, +24.765770 
1488854782.467879, 1488854782.467879, -1.081299, +0.186035, +0.040527, -42.451008, -77.195419, +24.765770 
1488854782.471637, 1488854782.471637, -1.081299, +0.186035, +0.040527, -42.451008, -77.195419, +24.765770 
1488854782.475637, 1488854782.475637, -1.101440, +0.179077, +0.020996, -43.641193, -79.560532, +26.627342 
1488854782.479597, 1488854782.479597, -1.101440, +0.179077, +0.020996, -43.641193, -79.560532, +26.627342 
1488854782.483561, 1488854782.483561, -1.101440, +0.179077, +0.020996, -43.641193, -79.560532, +26.627342 
1488854782.487509, 1488854782.487509, -1.101440, +0.179077, +0.020996, -44.739826, -82.429184, +27.954857 
1488854782.491459, 1488854782.491459, -1.101440, +0.179077, +0.020996, -44.739826, -82.429184, +27.954857 
1488854782.495301, 1488854782.495301, -1.132690, +0.178589, -0.010498, -44.739826, -82.429184, +27.954857 
1488854782.499059, 1488854782.499059, -1.151245, +0.178589, -0.010498, -46.052082, -84.962143, +29.587547 
1488854782.502826, 1488854782.502826, -1.151245, +0.178589, -0.010498, -46.052082, -84.962143, +29.587547 
1488854782.506676, 1488854782.506676, -1.151245, +0.178589, -0.010498, -46.052082, -84.962143, +33.493797 
1488854782.510428, 1488854782.510428, -1.151245, +0.178589, -0.010498, -47.440632, -88.303818, +32.425682 
1488854782.514398, 1488854782.514398, -1.151245, +0.178589, -0.023193, -47.440632, -88.303818, +32.425682 
1488854782.518348, 1488854782.518348, -1.191528, +0.250122, -0.023193, -51.346882, -90.653671, +36.423485 
1488854782.522306, 1488854782.522306, -1.191528, +0.250122, -0.023193, -48.890217, -90.653671, +36.423485 
1488854782.526320, 1488854782.526320, -1.191528, +0.250122, -0.023193, -48.890217, -90.653671, +36.423485 
1488854782.530337, 1488854782.530337, -1.191528, +0.250122, -0.023193, -51.102741, -90.882553, +40.314476 
1488854782.534295, 1488854782.534295, -1.191528, +0.250122, +0.003296, -51.102741, -90.882553, +40.314476 
1488854782.538247, 1488854782.538247, -1.252197, +0.303345, +0.003296, -51.102741, -90.882553, +40.314476 
1488854782.542194, 1488854782.542194, -1.252197, +0.303345, +0.003296, -55.695637, -90.592636, +43.915550 
1488854782.546156, 1488854782.546156, -1.252197, +0.303345, +0.003296, -55.695637, -90.592636, +43.915550 
1488854782.550106, 1488854782.550106, -1.252197, +0.303345, +0.003296, -55.695637, -90.592636, +43.915550 
1488854782.554035, 1488854782.554035, -1.252197, +0.303345, +0.097046, -59.495075, -91.218246, +47.760765 
1488854782.557796, 1488854782.557796, -1.323242, +0.344849, +0.099243, -59.495075, -91.218246, +47.760765 
1488854782.561546, 1488854782.561546, -1.323242, +0.344849, +0.099243, -59.495075, -91.218246, +47.180931 
1488854782.565304, 1488854782.565304, -1.323242, +0.344849, +0.099243, -63.798054, -91.096176, +47.180931 
1488854782.569059, 1488854782.569059, -1.323242, +0.344849, +0.099243, -63.798054, -91.096176, +47.180931 
1488854782.572816, 1488854782.572816, -1.323242, +0.344849, +0.099243, -67.704308, -91.126694, +43.930809 
1488854782.576675, 1488854782.576675, -1.384155, +0.420776, +0.253784, -69.855797, -91.126694, +43.930809 
1488854782.580434, 1488854782.580434, -1.384155, +0.420776, +0.253784, -69.855797, -91.126694, +43.930809 
1488854782.584397, 1488854782.584397, -1.384155, +0.420776, +0.253784, -77.057945, -94.468369, +41.260521 
1488854782.588339, 1488854782.588339, -1.384155, +0.420776, +0.253784, -77.057945, -94.468369, +41.260521 
1488854782.592290, 1488854782.592290, -1.384155, +0.420776, +0.253784, -77.057945, -94.468369, +41.260521 
1488854782.596083, 1488854782.596083, -1.283936, +0.442383, +0.256958, -78.095543, -97.382797, +40.085594 
1488854782.599831, 1488854782.599831, -1.283936, +0.442383, +0.256958, -78.095543, -97.382797, +40.085594 
1488854782.603618, 1488854782.603618, -1.283936, +0.442383, +0.256958, -78.095543, -97.382797, +40.085594 
1488854782.607567, 1488854782.607567, -1.283936, +0.442383, +0.256958, -69.153893, -92.499985, +39.124290 
1488854782.611736, 1488854782.611736, -1.283936, +0.442383, +0.256958, -69.153893, -92.499985, +39.124290 
1488854782.615640, 1488854782.615640, -0.859131, +0.371948, -0.063232, -69.153893, -92.499985, +39.124290 
1488854782.619658, 1488854782.619658, -0.859131, +0.371948, -0.063232, -58.808430, -78.934921, +36.942284 
1488854782.623947, 1488854782.623947, -0.859131, +0.371948, -0.063232, -58.808430, -78.934921, +36.942284 
1488854782.627894, 1488854782.627894, -0.859131, +0.371948, -0.063232, -59.266193, -65.247787, +33.676903 
1488854782.631846, 1488854782.631846, -0.859131, +0.371948, -0.063232, -59.266193, -65.247787, +33.676903 
1488854782.635806, 1488854782.635806, -0.639404, +0.483887, +0.124268, -59.266193, -65.247787, +33.676903 
1488854782.639756, 1488854782.639756, -0.639404, +0.483887, +0.124268, -67.475426, -57.252186, +28.595726 
1488854782.643694, 1488854782.643694, -0.639404, +0.483887, +0.124268, -67.475426, -57.252186, +28.595726 
1488854782.647449, 1488854782.647449, -0.639404, +0.483887, +0.124268, -67.475426, -57.252186, +28.595726 
1488854782.651210, 1488854782.651210, -0.639404, +0.483887, +0.124268, -66.422569, -45.289295, +26.108543 
1488854782.655015, 1488854782.655015, -0.296143, +0.291138, -0.196289, -66.422569, -45.289295, +26.108543 
1488854782.658772, 1488854782.658772, -0.296143, +0.291138, -0.196289, -66.422569, -45.289295, +26.108543 
1488854782.662520, 1488854782.662520, -0.296143, +0.291138, -0.196289, -53.361042, -17.716663, +20.737450 
1488854782.666317, 1488854782.666317, -0.296143, +0.291138, -0.196289, -53.361042, -17.716663, +20.737450 
1488854782.670069, 1488854782.670069, -0.296143, +0.291138, -0.196289, -53.361042, -17.716663, +20.737450 
1488854782.673976, 1488854782.673976, -0.296143, -0.192749, -0.133057, -44.938190, +8.299572, +5.722801 
1488854782.677720, 1488854782.677720, -0.534668, -0.192749, -0.133057, -44.938190, +8.299572, +5.722801 
1488854782.681477, 1488854782.681477, -0.534668, -0.192749, -0.133057, -44.938190, +16.112072, -10.375221 
1488854782.685444, 1488854782.685444, -0.534668, -0.192749, -0.133057, -39.139851, +18.675549, -10.375221 
1488854782.689393, 1488854782.689393, -0.534668, -0.192749, -0.133057, -39.139851, +18.675549, -10.375221 
1488854782.693343, 1488854782.693343, -0.534668, -0.192749, +0.051270, -30.274494, +25.343639, -22.475441 
1488854782.697097, 1488854782.697097, -0.555176, -0.205078, +0.051270, -30.274494, +25.343639, -22.475441 
1488854782.700851, 1488854782.700851, -0.555176, -0.205078, +0.051270, -30.274494, +25.343639, -22.475441 
1488854782.704727, 1488854782.704727, -0.555176, -0.205078, +0.051270, -24.430378, +36.055309, -33.126076 
1488854782.708684, 1488854782.708684, -0.555176, -0.205078, +0.051270, -24.430378, +36.055309, -33.126076 
1488854782.712635, 1488854782.712635, -0.555176, -0.205078, +0.051270, -24.430378, +36.055309, -33.126076 
1488854782.716597, 1488854782.716597, -0.549805, -0.166016, +0.001953, -22.095783, +48.781139, -43.547829 
1488854782.720552, 1488854782.720552, -0.549805, -0.166016, +0.001953, -22.095783, +48.781139, -43.547829 
1488854782.724517, 1488854782.724517, -0.549805, -0.166016, +0.001953, -22.095783, +48.781139, -51.360329 
1488854782.728470, 1488854782.728470, -0.549805, -0.166016, +0.001953, -15.534505, +62.361462, -51.589211 
1488854782.732419, 1488854782.732419, -0.549805, -0.166016, +0.001953, -15.534505, +62.361462, -51.589211 
1488854782.736389, 1488854782.736389, -0.582520, -0.052002, +0.053955, -7.722005, +75.300919, -59.233864 
1488854782.740489, 1488854782.740489, -0.582520, -0.052002, +0.053955, -4.807576, +75.300919, -59.233864 
1488854782.744831, 1488854782.744831, -0.582520, -0.052002, +0.053955, -4.807576, +75.300919, -59.233864 
1488854782.748589, 1488854782.748589, -0.582520, -0.052002, +0.053955, +6.789104, +85.722672, -67.534645 
1488854782.752340, 1488854782.752340, -0.582520, -0.052002, +0.053955, +6.789104, +85.722672, -67.534645 
1488854782.756309, 1488854782.756309, -0.656860, +0.142334, +0.030640, +6.789104, +85.722672, -67.534645 
1488854782.760359, 1488854782.760359, -0.656860, +0.142334, +0.030640, +12.617961, +95.045792, -74.584206 
1488854782.764327, 1488854782.764327, -0.656860, +0.142334, +0.030640, +12.617961, +95.045792, -74.584206 
1488854782.768277, 1488854782.768277, -0.656860, +0.142334, +0.030640, +12.617961, +95.045792, -78.932961 
1488854782.772219, 1488854782.772219, -0.656860, +0.142334, +0.030640, +12.953654, +104.796158, -78.932961 
1488854782.776029, 1488854782.776029, -0.736816, +0.176025, -0.066162, +12.953654, +104.796158, -78.932961 
1488854782.779773, 1488854782.779773, -0.736816, +0.176025, -0.066162, +12.953654, +114.546524, -81.679543 
1488854782.783540, 1488854782.783540, -0.736816, +0.176025, -0.066162, +14.098063, +114.546524, -81.679543 
1488854782.787300, 1488854782.787300, -0.736816, +0.176025, -0.066162, +14.098063, +114.546524, -81.679543 
1488854782.791058, 1488854782.791058, -0.736816, +0.176025, -0.066162, +18.370525, +122.725235, -82.595070 
1488854782.794960, 1488854782.794960, -0.882812, +0.100098, -0.029053, +18.370525, +122.725235, -82.595070 
1488854782.798711, 1488854782.798711, -0.882812, +0.100098, -0.029053, +18.370525, +122.725235, -82.595070 
1488854782.802474, 1488854782.802474, -0.882812, +0.100098, -0.029053, +25.023357, +130.781876, -81.587990 
1488854782.806496, 1488854782.806496, -0.882812, +0.100098, -0.029053, +25.023357, +130.781876, -81.587990 
1488854782.810456, 1488854782.810456, -0.882812, +0.100098, -0.029053, +25.023357, +130.781876, -81.587990 
1488854782.814407, 1488854782.814407, -1.013916, +0.130249, -0.034424, +33.797161, +140.227066, -80.367287 
1488854782.818355, 1488854782.818355, -1.013916, +0.130249, -0.034424, +33.797161, +140.227066, -80.367287 
1488854782.822302, 1488854782.822302, -1.013916, +0.130249, -0.034424, +33.797161, +140.227066, -80.367287 
1488854782.826303, 1488854782.826303, -1.013916, +0.130249, -0.034424, +39.854900, +149.748550, -80.657204 
1488854782.830253, 1488854782.830253, -1.013916, +0.130249, -0.034424, +39.854900, +149.748550, -80.657204 
1488854782.834150, 1488854782.834150, -1.175781, +0.211914, -0.016846, +39.854900, +157.561050, -82.152565 
1488854782.837901, 1488854782.837901, -1.175781, +0.211914, -0.016846, +42.464153, +157.377945, -82.152565 
1488854782.841653, 1488854782.841653, -1.175781, +0.211914, -0.016846, +42.464153, +157.377945, -82.152565 
1488854782.845542, 1488854782.845542, -1.175781, +0.211914, -0.016846, +41.487591, +162.245499, -84.349831 
1488854782.849488, 1488854782.849488, -1.175781, +0.211914, -0.016846, +41.487591, +162.245499, -84.349831 
1488854782.853477, 1488854782.853477, -1.291260, +0.272949, -0.044800, +41.487591, +162.245499, -84.349831 
1488854782.857423, 1488854782.857423, -1.291260, +0.272949, -0.044800, +38.679974, +164.564835, -86.196144 
1488854782.861629, 1488854782.861629, -1.291260, +0.272949, -0.044800, +38.679974, +164.564835, -86.196144 
1488854782.865909, 1488854782.865909, -1.291260, +0.272949, -0.044800, +38.679974, +164.564835, -86.196144 
1488854782.869871, 1488854782.869871, -1.291260, +0.272949, -0.044800, +36.314861, +165.022598, -87.905128 
1488854782.873871, 1488854782.873871, -1.389771, +0.243286, -0.038574, +36.314861, +165.022598, -87.905128 
1488854782.877818, 1488854782.877818, -1.389771, +0.243286, -0.038574, +36.314861, +163.847672, -87.371071 
1488854782.881783, 1488854782.881783, -1.389771, +0.243286, -0.038574, +35.673992, +163.847672, -87.371071 
1488854782.885618, 1488854782.885618, -1.389771, +0.243286, -0.038574, +35.673992, +163.847672, -87.371071 
1488854782.889369, 1488854782.889369, -1.389771, +0.243286, -0.038574, +38.008587, +162.764297, -85.250099 
1488854782.893128, 1488854782.893128, -1.440796, +0.227417, -0.080688, +38.008587, +162.764297, -85.250099 
1488854782.896888, 1488854782.896888, -1.440796, +0.227417, -0.080688, +38.008587, +162.764297, -85.250099 
1488854782.900647, 1488854782.900647, -1.440796, +0.227417, -0.080688, +41.960613, +162.611710, -81.618507 
1488854782.904449, 1488854782.904449, -1.440796, +0.227417, -0.080688, +41.960613, +162.611710, -81.618507 
1488854782.908310, 1488854782.908310, -1.440796, +0.227417, -0.080688, +41.960613, +162.611710, -81.618507 
1488854782.912070, 1488854782.912070, -1.440796, +0.258667, -0.096191, +44.676678, +162.123428, -76.323708 
1488854782.915922, 1488854782.915922, -1.449219, +0.261841, -0.096191, +44.676678, +162.123428, -76.323708 
1488854782.919682, 1488854782.919682, -1.449219, +0.261841, -0.096191, +44.676678, +162.123428, -76.323708 
1488854782.923573, 1488854782.923573, -1.449219, +0.261841, -0.096191, +49.773113, +162.657486, -70.876320 
1488854782.927327, 1488854782.927327, -1.449219, +0.261841, -0.096191, +49.773113, +162.657486, -70.876320 
1488854782.931078, 1488854782.931078, -1.449219, +0.261841, -0.096191, +49.773113, +162.657486, -70.876320 
1488854782.934938, 1488854782.934938, -1.414429, +0.254761, -0.210815, +55.846111, +163.908707, -64.727028 
1488854782.938885, 1488854782.938885, -1.414429, +0.254761, -0.210815, +55.846111, +163.908707, -64.727028 
1488854782.942838, 1488854782.942838, -1.414429, +0.254761, -0.210815, +55.846111, +163.908707, -59.615334 
1488854782.946804, 1488854782.946804, -1.414429, +0.254761, -0.210815, +61.461346, +166.975723, -59.615334 
1488854782.950703, 1488854782.950703, -1.414429, +0.254761, -0.210815, +61.461346, +166.975723, -59.615334 
1488854782.954631, 1488854782.954631, -1.430420, +0.229614, -0.272949, +64.558876, +167.738663, -55.449684 
1488854782.959129, 1488854782.959129, -1.430420, +0.229614, -0.272949, +64.558876, +167.738663, -55.449684 
1488854782.962876, 1488854782.962876, -1.430420, +0.229614, -0.272949, +64.558876, +167.738663, -55.449684 
1488854782.966695, 1488854782.966695, -1.430420, +0.229614, -0.272949, +66.801918, +168.150650, -53.282936 
1488854782.970438, 1488854782.970438, -1.430420, +0.229614, -0.272949, +66.801918, +168.150650, -53.282936 
1488854782.974241, 1488854782.974241, -1.429321, +0.213745, -0.310913, +66.801918, +168.150650, -53.282936 
1488854782.977988, 1488854782.977988, -1.429321, +0.213745, -0.310913, +65.932167, +168.623672, -52.153786 
1488854782.981738, 1488854782.981738, -1.429321, +0.213745, -0.310913, +65.932167, +168.623672, -52.153786 
1488854782.985489, 1488854782.985489, -1.429321, +0.213745, -0.310913, +65.932167, +168.623672, -52.153786 
1488854782.989237, 1488854782.989237, -1.429321, +0.213745, -0.310913, +63.521282, +167.753922, -51.604469 
1488854782.993027, 1488854782.993027, -1.499878, +0.261108, -0.226929, +63.521282, +167.753922, -51.604469 
1488854782.996779, 1488854782.996779, -1.499878, +0.261108, -0.226929, +63.521282, +167.753922, -51.604469 
1488854783.000516, 1488854783.000516, -1.499878, +0.261108, -0.226929, +61.369793, +164.671646, -50.231178 
1488854783.004389, 1488854783.004389, -1.499878, +0.261108, -0.226929, +61.369793, +164.671646, -50.231178 
1488854783.008133, 1488854783.008133, -1.499878, +0.261108, -0.226929, +61.369793, +164.671646, -47.743996 
1488854783.011878, 1488854783.011878, -1.593628, +0.345093, -0.092651, +62.453167, +158.873306, -47.743996 
1488854783.015758, 1488854783.015758, -1.565430, +0.345093, -0.092651, +62.453167, +158.873306, -47.743996 
1488854783.019505, 1488854783.019505, -1.565430, +0.345093, -0.092651, +62.453167, +151.060806, -44.173439 
1488854783.023283, 1488854783.023283, -1.565430, +0.345093, -0.092651, +65.688026, +149.214493, -44.173439 
1488854783.027050, 1488854783.027050, -1.565430, +0.345093, -0.092651, +65.688026, +149.214493, -44.173439 
1488854783.030795, 1488854783.030795, -1.565430, +0.345093, -0.155151, +66.618813, +142.378555, -43.975075 
1488854783.034627, 1488854783.034627, -1.470581, +0.330200, -0.143311, +66.618813, +142.378555, -43.975075 
1488854783.038574, 1488854783.038574, -1.470581, +0.330200, -0.143311, +66.618813, +142.378555, -43.975075 
1488854783.042522, 1488854783.042522, -1.470581, +0.330200, -0.143311, +63.612835, +137.434708, -45.088966 
1488854783.046515, 1488854783.046515, -1.470581, +0.330200, -0.143311, +63.612835, +137.434708, -45.088966 
1488854783.050465, 1488854783.050465, -1.470581, +0.330200, -0.237061, +63.612835, +137.434708, -45.088966 
1488854783.054530, 1488854783.054530, -1.347656, +0.269897, -0.220581, +58.104412, +132.261978, -45.851906 
1488854783.058486, 1488854783.058486, -1.347656, +0.269897, -0.220581, +58.104412, +132.261978, -45.851906 
1488854783.062437, 1488854783.062437, -1.347656, +0.269897, -0.220581, +58.104412, +132.261978, -49.758156 
1488854783.066397, 1488854783.066397, -1.347656, +0.269897, -0.220581, +49.513714, +128.477798, -46.279152 
1488854783.070570, 1488854783.070570, -1.347656, +0.269897, -0.263306, +49.513714, +128.477798, -46.279152 
1488854783.074781, 1488854783.074781, -1.326782, +0.236572, -0.263306, +40.709393, +124.373184, -44.402321 
1488854783.078536, 1488854783.078536, -1.326782, +0.236572, -0.263306, +40.709393, +124.373184, -44.402321 
1488854783.082286, 1488854783.082286, -1.326782, +0.236572, -0.263306, +40.709393, +124.373184, -44.402321 
1488854783.086212, 1488854783.086212, -1.326782, +0.236572, -0.263306, +33.568279, +118.651138, -41.899879 
1488854783.090155, 1488854783.090155, -1.326782, +0.236572, -0.263306, +33.568279, +118.651138, -41.899879 
1488854783.094115, 1488854783.094115, -1.341309, +0.236328, -0.154663, +33.568279, +118.651138, -41.899879 
1488854783.098059, 1488854783.098059, -1.341309, +0.236328, -0.154663, +27.007000, +110.182510, -39.519508 
1488854783.102000, 1488854783.102000, -1.341309, +0.236328, -0.154663, +27.007000, +110.182510, -39.519508 
1488854783.105811, 1488854783.105811, -1.341309, +0.236328, -0.154663, +27.007000, +110.182510, -39.519508 
1488854783.109565, 1488854783.109565, -1.341309, +0.236328, -0.154663, +21.788494, +99.409805, -35.643776 
1488854783.113321, 1488854783.113321, -1.298096, +0.275269, -0.027710, +21.788494, +99.409805, -35.643776 
1488854783.117079, 1488854783.117079, -1.298096, +0.275269, -0.027710, +21.788494, +99.409805, -27.831276 
1488854783.120829, 1488854783.120829, -1.298096, +0.275269, -0.027710, +18.797771, +89.064346, -30.013283 
1488854783.124733, 1488854783.124733, -1.298096, +0.275269, -0.027710, +18.797771, +89.064346, -30.013283 
1488854783.128488, 1488854783.128488, -1.298096, +0.275269, -0.027710, +18.797771, +81.251846, -22.750099 
1488854783.132241, 1488854783.132241, -1.213379, +0.189941, -0.001587, +19.926922, +79.893814, -22.750099 
1488854783.136363, 1488854783.136363, -1.213379, +0.189941, -0.001587, +19.926922, +79.893814, -22.750099 
1488854783.140315, 1488854783.140315, -1.213379, +0.189941, -0.001587, +22.414104, +71.684586, -17.012794 
1488854783.144308, 1488854783.144308, -1.213379, +0.189941, -0.001587, +22.414104, +71.684586, -17.012794 
1488854783.148261, 1488854783.148261, -1.213379, +0.189941, -0.001587, +22.414104, +71.684586, -17.012794 
1488854783.152207, 1488854783.152207, -1.202881, +0.043945, -0.057739, +26.076214, +62.727673, -12.572487 
1488854783.156165, 1488854783.156165, -1.202881, +0.043945, -0.057739, +26.076214, +62.727673, -12.572487 
1488854783.160113, 1488854783.160113, -1.202881, +0.043945, -0.057739, +26.076214, +62.727673, -12.572487 
1488854783.164074, 1488854783.164074, -1.202881, +0.043945, -0.057739, +30.089275, +52.290661, -6.316383 
1488854783.168021, 1488854783.168021, -1.202881, +0.043945, -0.057739, +30.089275, +52.290661, -6.316383 
1488854783.171957, 1488854783.171957, -1.187378, +0.100952, -0.094238, +30.089275, +40.571911, +0.855247 
1488854783.175919, 1488854783.175919, -1.187378, +0.100952, -0.094238, +31.752483, +40.999157, +0.855247 
1488854783.179871, 1488854783.179871, -1.187378, +0.100952, -0.094238, +31.752483, +40.999157, +0.855247 
1488854783.183803, 1488854783.183803, -1.187378, +0.100952, -0.094238, +29.524700, +28.395397, +6.317894 
1488854783.187555, 1488854783.187555, -1.187378, +0.100952, -0.094238, +29.524700, +28.395397, +6.317894 
1488854783.191562, 1488854783.191562, -1.113281, +0.144653, -0.116699, +29.524700, +28.395397, +6.317894 
1488854783.195898, 1488854783.195898, -1.113281, +0.144653, -0.116699, +24.016277, +15.990002, +10.163109 
1488854783.199849, 1488854783.199849, -1.113281, +0.144653, -0.116699, +24.016277, +15.990002, +10.163109 
1488854783.203908, 1488854783.203908, -1.113281, +0.144653, -0.116699, +24.016277, +15.990002, +10.163109 
1488854783.207862, 1488854783.207862, -1.113281, +0.144653, -0.116699, +17.989056, +5.675061, +14.115135 
1488854783.211807, 1488854783.211807, -1.047485, +0.078491, -0.118408, +17.989056, +5.675061, +14.115135 
1488854783.215769, 1488854783.215769, -1.047485, +0.078491, -0.118408, +17.989056, -3.739612, +17.990868 
1488854783.219705, 1488854783.219705, -1.047485, +0.078491, -0.118408, +16.142742, -3.739612, +17.990868 
1488854783.223663, 1488854783.223663, -1.047485, +0.078491, -0.118408, +16.142742, -3.739612, +17.990868 
1488854783.227410, 1488854783.227410, -1.047485, +0.078491, -0.118408, +19.057171, -10.575550, +22.675316 
1488854783.231163, 1488854783.231163, -0.951660, +0.057251, -0.136475, +19.057171, -10.575550, +22.675316 
1488854783.234924, 1488854783.234924, -0.951660, +0.057251, -0.136475, +19.057171, -10.575550, +22.675316 
1488854783.238678, 1488854783.238678, -0.951660, +0.057251, -0.136475, +23.268597, -14.558094, +26.154320 
1488854783.242429, 1488854783.242429, -0.951660, +0.057251, -0.136475, +23.268597, -14.558094, +26.154320 
1488854783.246337, 1488854783.246337, -0.951660, +0.057251, -0.136475, +23.268597, -14.558094, +26.154320 
1488854783.250090, 1488854783.250090, -0.951660, +0.048828, -0.232544, +26.747601, -16.282337, +28.183739 
1488854783.254019, 1488854783.254019, -0.958496, +0.048828, -0.232544, +26.747601, -16.282337, +28.183739 
1488854783.257970, 1488854783.257970, -0.958496, +0.048828, -0.232544, +26.747601, -16.282337, +28.183739 
1488854783.262086, 1488854783.262086, -0.958496, +0.048828, -0.232544, +28.990643, -17.594593, +28.824608 
1488854783.266028, 1488854783.266028, -0.958496, +0.048828, -0.232544, +28.990643, -17.594593, +28.824608 
1488854783.270734, 1488854783.270734, -1.014648, +0.033569, -0.291748, +28.258221, -19.318836, +28.397362 
1488854783.274604, 1488854783.274604, -1.014648, +0.033569, -0.291748, +28.258221, -19.318836, +28.397362 
1488854783.278357, 1488854783.278357, -1.014648, +0.033569, -0.291748, +28.258221, -19.318836, +28.397362 
1488854783.282114, 1488854783.282114, -1.014648, +0.033569, -0.291748, +23.527996, -21.775501, +27.146141 
1488854783.285871, 1488854783.285871, -1.014648, +0.033569, -0.291748, +23.527996, -21.775501, +27.146141 
1488854783.289628, 1488854783.289628, -1.014648, +0.046265, -0.275757, +23.527996, -21.775501, +27.146141 
1488854783.293377, 1488854783.293377, -1.042114, +0.046265, -0.275757, +17.195599, -24.018543, +26.673119 
1488854783.297132, 1488854783.297132, -1.042114, +0.046265, -0.275757, +17.195599, -24.018543, +26.673119 
1488854783.300880, 1488854783.300880, -1.042114, +0.046265, -0.275757, +17.195599, -24.018543, +26.673119 
1488854783.304667, 1488854783.304667, -1.042114, +0.046265, -0.275757, +13.396159, -24.659412, +27.298729 
1488854783.308410, 1488854783.308410, -1.042114, +0.046265, -0.275757, +13.396159, -24.659412, +27.298729 
1488854783.312159, 1488854783.312159, -1.130737, -0.087402, -0.209106, +13.396159, -24.659412, +27.298729 
1488854783.316073, 1488854783.316073, -1.130737, -0.087402, -0.209106, +16.920940, -28.260487, +27.649681 
1488854783.319820, 1488854783.319820, -1.130737, -0.087402, -0.209106, +16.920940, -28.260487, +27.649681 
1488854783.323665, 1488854783.323665, -1.130737, -0.087402, -0.209106, +16.920940, -28.260487, +27.649681 
1488854783.327411, 1488854783.327411, -1.130737, -0.087402, -0.209106, +28.792278, -38.911121, +28.092186 
1488854783.331162, 1488854783.331162, -0.891724, -0.240112, -0.515869, +28.792278, -38.911121, +28.092186 
1488854783.334915, 1488854783.334915, -0.891724, -0.240112, -0.515869, +28.792278, -38.911121, +28.092186 
1488854783.338661, 1488854783.338661, -0.891724, -0.240112, -0.515869, +42.418377, -32.960194, +26.657860 
1488854783.342408, 1488854783.342408, -0.891724, -0.240112, -0.515869, +42.418377, -32.960194, +26.657860 
1488854783.346353, 1488854783.346353, -0.891724, -0.240112, -0.515869, +42.418377, +2.196057, +9.644310 
1488854783.350296, 1488854783.350296, -0.748291, -0.887085, -1.584229, +45.088665, +3.126843, +9.644310 
1488854783.354394, 1488854783.354394, -0.748291, -0.887085, -1.584229, +45.088665, +3.126843, +9.644310 
1488854783.358341, 1488854783.358341, -0.748291, -0.887085, -1.584229, +24.916546, +21.574718, +1.053612 
1488854783.362287, 1488854783.362287, -0.748291, -0.887085, -1.584229, +24.916546, +21.574718, +1.053612 
1488854783.366242, 1488854783.366242, -0.748291, -0.887085, -1.584229, +24.916546, +21.574718, +1.053612 
1488854783.370188, 1488854783.370188, -1.560547, -0.425537, -0.316284, +1.158610, +3.142102, +7.248680 
1488854783.374097, 1488854783.374097, -1.560547, -0.425537, -0.316284, +1.158610, +3.142102, +7.248680 
1488854783.377847, 1488854783.377847, -1.560547, -0.425537, -0.316284, +1.158610, +3.142102, +7.248680 
1488854783.381711, 1488854783.381711, -1.560547, -0.425537, -0.316284, -8.927449, -35.386341, +6.241600 
1488854783.385813, 1488854783.385813, -1.560547, -0.425537, -0.316284, -8.927449, -35.386341, +6.241600 
1488854783.389759, 1488854783.389759, -1.168701, -0.508057, -0.642822, -8.927449, -54.917591, -3.325661 
1488854783.393716, 1488854783.393716, -1.168701, -0.508057, -0.642822, -7.966146, -57.435291, -3.325661 
1488854783.397661, 1488854783.397661, -1.168701, -0.508057, -0.642822, -7.966146, -57.435291, -3.325661 
1488854783.401602, 1488854783.401602, -1.168701, -0.508057, -0.642822, -17.212971, -46.448963, -2.593239 
1488854783.405558, 1488854783.405558, -1.168701, -0.508057, -0.642822, -17.212971, -46.448963, -2.593239 
1488854783.409506, 1488854783.409506, -1.096680, -0.050171, -0.697998, -17.212971, -46.448963, -2.593239 
1488854783.413455, 1488854783.413455, -1.096680, -0.050171, -0.697998, -30.549152, -31.525867, +10.941307 
1488854783.417211, 1488854783.417211, -1.096680, -0.050171, -0.697998, -30.549152, -31.525867, +10.941307 
1488854783.420975, 1488854783.420975, -1.096680, -0.050171, -0.697998, -30.549152, -31.525867, +10.941307 
1488854783.424744, 1488854783.424744, -1.096680, -0.050171, -0.697998, -32.868488, -33.417957, +28.855125 
1488854783.428496, 1488854783.428496, -1.096680, +0.872559, -0.299561, -32.868488, -33.417957, +28.855125 
1488854783.432253, 1488854783.432253, -1.144287, +0.872559, -0.299561, -32.868488, -33.417957, +28.855125 
1488854783.436148, 1488854783.436148, -1.144287, +0.872559, -0.299561, -15.229329, -33.005970, +61.646263 
1488854783.439913, 1488854783.439913, -1.144287, +0.872559, -0.299561, -15.229329, -33.005970, +61.646263 
1488854783.443821, 1488854783.443821, -1.144287, +0.872559, -0.299561, -15.229329, -33.005970, +92.896263 
1488854783.447771, 1488854783.447771, -1.144287, +0.872559, -0.424561, +21.407024, -22.248524, +91.568748 
1488854783.451726, 1488854783.451726, -1.723755, +0.280151, -0.428955, +21.407024, -22.248524, +91.568748 
1488854783.455714, 1488854783.455714, -1.723755, +0.280151, -0.428955, +74.080360, -24.674671, +74.082176 
1488854783.459667, 1488854783.459667, -1.723755, +0.280151, -0.428955, +74.080360, -24.674671, +74.082176 
1488854783.463618, 1488854783.463618, -1.723755, +0.280151, -0.428955, +74.080360, -24.674671, +74.082176 
1488854783.467569, 1488854783.467569, -1.723755, +0.280151, -0.616455, +82.030190, -47.562855, +47.486107 
1488854783.471520, 1488854783.471520, -1.317017, -0.186890, -0.619995, +82.030190, -47.562855, +47.486107 
1488854783.475393, 1488854783.475393, -1.317017, -0.186890, -0.619995, +82.030190, -47.562855, +47.486107 
1488854783.479142, 1488854783.479142, -1.317017, -0.186890, -0.619995, +55.708782, -65.202011, +39.063255 
1488854783.482895, 1488854783.482895, -1.317017, -0.186890, -0.619995, +55.708782, -65.202011, +39.063255 
1488854783.486964, 1488854783.486964, -1.317017, -0.186890, -0.619995, +55.708782, -65.202011, +39.063255 
1488854783.490919, 1488854783.490919, -0.952393, +0.092651, -0.445435, +53.099529, -79.392685, +27.756493 
1488854783.494918, 1488854783.494918, -0.952393, +0.092651, -0.445435, +53.099529, -79.392685, +27.756493 
1488854783.498872, 1488854783.498872, -0.952393, +0.092651, -0.445435, +37.474529, -76.249374, +17.426292 
1488854783.503513, 1488854783.503513, -0.952393, +0.092651, -0.445435, +34.697430, -76.249374, +17.426292 
1488854783.507475, 1488854783.507475, -0.952393, +0.092651, -0.279663, +34.697430, -76.249374, +17.426292 
1488854783.511433, 1488854783.511433, -0.864380, -0.229370, -0.279663, +11.504069, -59.296864, +21.683495 
1488854783.515401, 1488854783.515401, -0.864380, -0.229370, -0.279663, +11.504069, -59.296864, +21.683495 
1488854783.519348, 1488854783.519348, -0.864380, -0.229370, -0.279663, +11.504069, -59.296864, +21.683495 
1488854783.523300, 1488854783.523300, -0.864380, -0.229370, -0.279663, -4.197225, -42.756336, +31.937401 
1488854783.527049, 1488854783.527049, -0.864380, -0.229370, -0.279663, -4.197225, -42.756336, +31.937401 
1488854783.530801, 1488854783.530801, -1.021973, -0.046509, -0.246094, -4.197225, -42.756336, +31.937401 
1488854783.534603, 1488854783.534603, -1.021973, -0.046509, -0.246094, -2.137288, -35.554188, +38.132469 
1488854783.538357, 1488854783.538357, -1.021973, -0.046509, -0.246094, -2.137288, -35.554188, +38.132469 
1488854783.542109, 1488854783.542109, -1.021973, -0.046509, -0.246094, -2.137288, -35.554188, +38.025658 
1488854783.545867, 1488854783.545867, -1.021973, -0.046509, -0.246094, +0.533000, -38.117664, +38.025658 
1488854783.549624, 1488854783.549624, -1.034790, -0.004883, -0.316284, +0.533000, -38.117664, +38.025658 
1488854783.553471, 1488854783.553471, -1.034790, -0.004883, -0.316284, +0.533000, -42.023914, +35.538475 
1488854783.557241, 1488854783.557241, -1.034790, -0.004883, -0.316284, +3.249064, -38.911121, +35.538475 
1488854783.560990, 1488854783.560990, -1.034790, -0.004883, -0.316284, +3.249064, -38.911121, +35.538475 
1488854783.564984, 1488854783.564984, -1.034790, -0.004883, -0.316284, +6.575480, -33.189075, +35.157005 
1488854783.568927, 1488854783.568927, -0.957886, +0.031006, -0.474731, +6.575480, -33.189075, +35.157005 
1488854783.572878, 1488854783.572878, -0.957886, +0.031006, -0.474731, +6.575480, -33.189075, +35.157005 
1488854783.576634, 1488854783.576634, -0.957886, +0.031006, -0.474731, +1.158610, -27.451771, +32.181541 
1488854783.580384, 1488854783.580384, -0.957886, +0.031006, -0.474731, +1.158610, -27.451771, +32.181541 
1488854783.584209, 1488854783.584209, -0.957886, +0.031006, -0.474731, +1.158610, -27.451771, +32.181541 
1488854783.588150, 1488854783.588150, -0.942627, +0.188232, -0.268433, -11.979207, -24.400013, +30.457298 
1488854783.592098, 1488854783.592098, -0.942627, +0.188232, -0.268433, -11.979207, -24.400013, +30.457298 
1488854783.595950, 1488854783.595950, -0.942627, +0.188232, -0.268433, -11.979207, -24.400013, +30.457298 
1488854783.599701, 1488854783.599701, -0.942627, +0.188232, -0.268433, -14.893636, -21.317738, +27.436058 
1488854783.603536, 1488854783.603536, -0.942627, +0.188232, -0.268433, -14.893636, -21.317738, +27.436058 
1488854783.607484, 1488854783.607484, -1.067627, +0.090088, -0.428467, -14.893636, -21.317738, +21.622459 
1488854783.611437, 1488854783.611437, -1.070190, +0.090088, -0.428467, -12.955770, -23.850697, +21.622459 
1488854783.615400, 1488854783.615400, -1.070190, +0.090088, -0.428467, -12.955770, -23.850697, +21.622459 
1488854783.619446, 1488854783.619446, -1.070190, +0.090088, -0.428467, -8.179769, -27.253407, +17.899315 
1488854783.623684, 1488854783.623684, -1.070190, +0.090088, -0.428467, -8.179769, -27.253407, +17.899315 
1488854783.627444, 1488854783.627444, -0.976440, +0.105103, -0.481567, -8.179769, -27.253407, +17.899315 
1488854783.631202, 1488854783.631202, -0.999390, +0.105103, -0.481567, -1.526936, -20.463245, +17.105858 
1488854783.635103, 1488854783.635103, -0.999390, +0.105103, -0.481567, -1.526936, -20.463245, +17.105858 
1488854783.639060, 1488854783.639060, -0.999390, +0.105103, -0.481567, -1.526936, -20.463245, +17.105858 
1488854783.643021, 1488854783.643021, -0.999390, +0.105103, -0.481567, +4.256145, -15.534657, +14.649193 
1488854783.646973, 1488854783.646973, -0.999390, +0.083740, -0.277588, +4.256145, -15.534657, +14.649193 
1488854783.650920, 1488854783.650920, -1.045166, +0.083740, -0.277588, +4.256145, -15.534657, +10.742943 
1488854783.654905, 1488854783.654905, -1.045166, +0.083740, -0.277588, +0.731364, -12.986439, +11.643211 
1488854783.658659, 1488854783.658659, -1.045166, +0.083740, -0.277588, +0.731364, -12.986439, +11.643211 
1488854783.662407, 1488854783.662407, -1.045166, +0.083740, -0.277588, +0.731364, -9.080189, +10.681908 
1488854783.666198, 1488854783.666198, -1.045166, +0.083740, -0.402588, -2.030477, -9.995716, +10.681908 
1488854783.669937, 1488854783.669937, -1.030029, -0.006836, -0.387329, -2.030477, -9.995716, +10.681908 
1488854783.673824, 1488854783.673824, -1.030029, -0.006836, -0.387329, +4.668132, -6.318347, +12.955467 
1488854783.677576, 1488854783.677576, -1.030029, -0.006836, -0.387329, +4.668132, -6.318347, +12.955467 
1488854783.681333, 1488854783.681333, -1.030029, -0.006836, -0.387329, +4.668132, -6.318347, +12.955467 
1488854783.685323, 1488854783.685323, -1.030029, -0.006836, -0.387329, +11.595622, -4.670398, +14.481346 
1488854783.689265, 1488854783.689265, -1.048462, +0.039185, -0.496094, +11.595622, -4.670398, +14.481346 
1488854783.693255, 1488854783.693255, -1.048462, +0.039185, -0.496094, +11.595622, -4.670398, +14.481346 
1488854783.697207, 1488854783.697207, -1.048462, +0.039185, -0.496094, +13.060466, -4.761951, +15.625755 
1488854783.701159, 1488854783.701159, -1.048462, +0.039185, -0.496094, +13.060466, -4.761951, +15.625755 
1488854783.705111, 1488854783.705111, -1.048462, +0.039185, -0.496094, +13.060466, -4.761951, +15.625755 
1488854783.709062, 1488854783.709062, -1.071411, +0.089111, -0.495117, +14.143840, -6.135242, +17.975609 
1488854783.713016, 1488854783.713016, -1.071411, +0.089111, -0.495117, +14.143840, -6.135242, +17.975609 
1488854783.716766, 1488854783.716766, -1.071411, +0.089111, -0.495117, +14.143840, -6.135242, +16.053001 
1488854783.720518, 1488854783.720518, -1.071411, +0.089111, -0.495117, +14.983073, -7.142322, +16.053001 
1488854783.724476, 1488854783.724476, -1.071411, +0.089111, -0.495117, +14.983073, -7.142322, +16.053001 
1488854783.728227, 1488854783.728227, -1.082520, +0.234009, -0.425293, +14.479533, -7.874744, +13.413231 
1488854783.731983, 1488854783.731983, -1.082520, +0.234009, -0.425293, +14.479533, -7.874744, +13.413231 
1488854783.735934, 1488854783.735934, -1.082520, +0.234009, -0.425293, +14.479533, -7.874744, +13.413231 
1488854783.740032, 1488854783.740032, -1.082520, +0.234009, -0.425293, +9.886638, -11.735218, +11.688988 
1488854783.744381, 1488854783.744381, -1.082520, +0.234009, -0.425293, +9.886638, -11.735218, +11.688988 
1488854783.748330, 1488854783.748330, -1.051514, +0.135498, -0.367676, +9.886638, -11.735218, +11.688988 
1488854783.752277, 1488854783.752277, -1.051514, +0.135498, -0.367676, +7.231608, -11.170643, +8.209984 
1488854783.756229, 1488854783.756229, -1.051514, +0.135498, -0.367676, +7.231608, -11.170643, +8.209984 
1488854783.760171, 1488854783.760171, -1.051514, +0.135498, -0.367676, +7.231608, -11.170643, +7.401268 
1488854783.764134, 1488854783.764134, -1.051514, +0.135498, -0.367676, +6.636516, -9.324329, +7.401268 
1488854783.768076, 1488854783.768076, -1.105469, +0.109985, -0.332397, +6.636516, -9.324329, +7.401268 
1488854783.772018, 1488854783.772018, -1.105469, +0.109985, -0.332397, +7.933513, -9.782093, +6.821434 
1488854783.775833, 1488854783.775833, -1.105469, +0.109985, -0.332397, +7.933513, -9.782093, +6.821434 
1488854783.779574, 1488854783.779574, -1.105469, +0.109985, -0.332397, +7.933513, -9.782093, +6.821434 
1488854783.783329, 1488854783.783329, -1.105469, +0.109985, -0.332397, +7.933513, -9.263294, +6.134789 
1488854783.787077, 1488854783.787077, -1.137085, +0.095947, -0.410645, +7.933513, -9.263294, +6.134789 
1488854783.790828, 1488854783.790828, -1.137085, +0.095947, -0.410645, +7.933513, -9.263294, +6.134789 
1488854783.794731, 1488854783.794731, -1.137085, +0.095947, -0.410645, +6.377116, -9.614246, +4.578392 
1488854783.798483, 1488854783.798483, -1.137085, +0.095947, -0.410645, +6.377116, -9.614246, +4.578392 
1488854783.802235, 1488854783.802235, -1.137085, +0.095947, -0.410645, +6.377116, -9.614246, +4.578392 
1488854783.806343, 1488854783.806343, -1.147949, +0.123779, -0.357056, +3.615275, -10.758656, +1.953880 
1488854783.810289, 1488854783.810289, -1.147949, +0.123779, -0.357056, +3.615275, -10.758656, +1.953880 
1488854783.814275, 1488854783.814275, -1.147949, +0.123779, -0.357056, +3.615275, -10.758656, +1.953880 
1488854783.818221, 1488854783.818221, -1.147949, +0.123779, -0.357056, -0.153645, -12.360828, +3.067772 
1488854783.822161, 1488854783.822161, -1.147949, +0.123779, -0.357056, -0.153645, -12.360828, +3.067772 
1488854783.825966, 1488854783.825966, -1.054199, +0.150391, -0.355225, -0.153645, -14.085072, +1.709739 
1488854783.829720, 1488854783.829720, -1.060059, +0.150391, -0.355225, -3.312215, -14.085072, +1.709739 
1488854783.833512, 1488854783.833512, -1.060059, +0.150391, -0.355225, -3.312215, -14.085072, +1.709739 
1488854783.837466, 1488854783.837466, -1.060059, +0.150391, -0.355225, -8.240804, -15.107410, -0.746926 
1488854783.841414, 1488854783.841414, -1.060059, +0.150391, -0.355225, -8.240804, -15.107410, -0.746926 
1488854783.845374, 1488854783.845374, -1.060059, +0.212891, -0.395508, -8.240804, -15.107410, -0.746926 
1488854783.849326, 1488854783.849326, -1.031738, +0.213745, -0.395508, -8.820638, -14.954823, -2.272804 
1488854783.853290, 1488854783.853290, -1.031738, +0.213745, -0.395508, -8.820638, -14.954823, -2.272804 
1488854783.857234, 1488854783.857234, -1.031738, +0.213745, -0.395508, -8.820638, -14.954823, -2.272804 
1488854783.861410, 1488854783.861410, -1.031738, +0.213745, -0.395508, -10.621175, -16.190784, -4.485329 
1488854783.865501, 1488854783.865501, -1.031738, +0.132568, -0.431396, -10.621175, -16.190784, -4.485329 
1488854783.869448, 1488854783.869448, -1.049072, +0.132568, -0.431396, -10.621175, -16.175526, -5.614479 
1488854783.873389, 1488854783.873389, -1.049072, +0.132568, -0.431396, -13.688191, -16.175526, -5.614479 
1488854783.877139, 1488854783.877139, -1.049072, +0.132568, -0.431396, -13.688191, -16.175526, -5.614479 
1488854783.880893, 1488854783.880893, -1.049072, +0.132568, -0.431396, -16.068562, -15.733021, -5.706032 
1488854783.884739, 1488854783.884739, -1.049072, +0.132568, -0.368896, -16.068562, -15.733021, -5.706032 
1488854783.888692, 1488854783.888692, -1.057251, +0.137939, -0.364746, -16.068562, -15.733021, -5.706032 
1488854783.892643, 1488854783.892643, -1.057251, +0.137939, -0.364746, -16.236408, -18.098133, -3.051003 
1488854783.896427, 1488854783.896427, -1.057251, +0.137939, -0.364746, -16.236408, -18.098133, -3.051003 
1488854783.900184, 1488854783.900184, -1.057251, +0.137939, -0.364746, -16.236408, -18.098133, -3.051003 
1488854783.903944, 1488854783.903944, -1.057251, +0.137939, -0.364746, -15.458211, -23.438709, +0.504295 
1488854783.907701, 1488854783.907701, -1.032837, +0.065430, -0.431763, -15.458211, -23.438709, +0.504295 
1488854783.911452, 1488854783.911452, -1.032837, +0.065430, -0.431763, -15.458211, -23.438709, +0.504295 
1488854783.915334, 1488854783.915334, -1.032837, +0.065430, -0.431763, -13.291463, -23.148792, +4.090111 
1488854783.919088, 1488854783.919088, -1.032837, +0.065430, -0.431763, -13.291463, -23.148792, +4.090111 
1488854783.922833, 1488854783.922833, -1.032837, +0.065430, -0.431763, -13.291463, -23.148792, +4.090111 
1488854783.926727, 1488854783.926727, -1.025757, +0.138916, -0.310425, -8.530721, -19.822376, +5.600731 
1488854783.930474, 1488854783.930474, -1.025757, +0.138916, -0.310425, -8.530721, -19.822376, +5.600731 
1488854783.934325, 1488854783.934325, -1.025757, +0.138916, -0.310425, -8.530721, -19.822376, +4.044334 
1488854783.938269, 1488854783.938269, -1.025757, +0.138916, -0.310425, -4.716023, -15.824574, +4.044334 
1488854783.942218, 1488854783.942218, -1.025757, +0.138916, -0.310425, -4.716023, -15.824574, +4.044334 
1488854783.946178, 1488854783.946178, -1.032104, +0.154541, -0.372437, -3.373250, -14.115589, +2.152244 
1488854783.950117, 1488854783.950117, -1.032104, +0.154541, -0.372437, -3.373250, -14.115589, +2.152244 
1488854783.954073, 1488854783.954073, -1.032104, +0.154541, -0.372437, -3.373250, -14.115589, +2.152244 
1488854783.958127, 1488854783.958127, -1.032104, +0.154541, -0.372437, -4.334554, -11.704700, -0.533303 
1488854783.962081, 1488854783.962081, -1.032104, +0.154541, -0.372437, -4.334554, -11.704700, -0.533303 
1488854783.966029, 1488854783.966029, -1.065063, +0.175537, -0.357300, -4.334554, -11.704700, -0.533303 
1488854783.969974, 1488854783.969974, -1.065063, +0.175537, -0.357300, -2.900228, -9.751575, -0.823220 
1488854783.973880, 1488854783.973880, -1.065063, +0.175537, -0.357300, -2.900228, -9.751575, -0.823220 
1488854783.977628, 1488854783.977628, -1.065063, +0.175537, -0.357300, -2.900228, -9.751575, -0.823220 
1488854783.981465, 1488854783.981465, -1.065063, +0.175537, -0.357300, -0.611409, -10.590809, -0.350197 
1488854783.985487, 1488854783.985487, -1.086304, +0.132080, -0.350952, -0.611409, -10.590809, -0.350197 
1488854783.989439, 1488854783.989439, -1.086304, +0.132080, -0.350952, -0.611409, -12.086170, +0.382225 
1488854783.993378, 1488854783.993378, -1.086304, +0.132080, -0.350952, +0.563518, -12.086170, +0.382225 
1488854783.997333, 1488854783.997333, -1.086304, +0.132080, -0.350952, +0.563518, -12.086170, +0.382225 
1488854784.001288, 1488854784.001288, -1.086304, +0.132080, -0.350952, +2.440349, -14.176624, +3.113548 
1488854784.005267, 1488854784.005267, -1.158691, +0.091553, -0.354736, +2.440349, -14.176624, +3.113548 
1488854784.009218, 1488854784.009218, -1.158691, +0.091553, -0.354736, +2.440349, -14.176624, +3.113548 
1488854784.013209, 1488854784.013209, -1.158691, +0.091553, -0.354736, +5.598918, -20.829456, +7.584373 
1488854784.016957, 1488854784.016957, -1.158691, +0.091553, -0.354736, +5.598918, -20.829456, +7.584373 
1488854784.020706, 1488854784.020706, -1.158691, +0.091553, -0.354736, +5.598918, -20.829456, +7.584373 
1488854784.024472, 1488854784.024472, -1.158691, +0.114258, -0.316162, +6.651774, -24.720448, +11.017601 
1488854784.028224, 1488854784.028224, -1.096680, +0.114258, -0.316162, +6.651774, -24.720448, +11.017601 
1488854784.031984, 1488854784.031984, -1.096680, +0.114258, -0.316162, +6.651774, -24.720448, +11.017601 
1488854784.035896, 1488854784.035896, -1.096680, +0.114258, -0.316162, +10.970012, -22.477406, +12.604515 
1488854784.039653, 1488854784.039653, -1.096680, +0.114258, -0.316162, +10.970012, -22.477406, +12.604515 
1488854784.043590, 1488854784.043590, -1.096680, +0.114258, -0.284912, +10.970012, -18.571156, +11.368553 
1488854784.047539, 1488854784.047539, -1.060791, +0.218506, -0.292969, +14.952556, -18.189686, +11.368553 
1488854784.051497, 1488854784.051497, -1.060791, +0.218506, -0.292969, +14.952556, -18.189686, +11.368553 
1488854784.055486, 1488854784.055486, -1.060791, +0.218506, -0.292969, +15.181437, -15.458363, +8.530418 
1488854784.059434, 1488854784.059434, -1.060791, +0.218506, -0.292969, +15.181437, -15.458363, +8.530418 
1488854784.063394, 1488854784.063394, -1.060791, +0.218506, -0.355469, +15.181437, -15.458363, +8.530418 
1488854784.067344, 1488854784.067344, -1.075317, +0.239624, -0.357178, +10.710612, -15.641468, +6.302635 
1488854784.071293, 1488854784.071293, -1.075317, +0.239624, -0.357178, +10.710612, -15.641468, +6.302635 
1488854784.075171, 1488854784.075171, -1.075317, +0.239624, -0.357178, +10.710612, -15.641468, +6.302635 
1488854784.078922, 1488854784.078922, -1.075317, +0.239624, -0.357178, +7.979289, -15.733021, +5.295555 
1488854784.082669, 1488854784.082669, -1.075317, +0.239624, -0.357178, +7.979289, -15.733021, +5.295555 
1488854784.086654, 1488854784.086654, -1.069946, +0.127197, -0.332764, +7.979289, -15.733021, +5.295555 
1488854784.090594, 1488854784.090594, -1.069946, +0.127197, -0.332764, +6.392375, -16.053455, +4.151146 
1488854784.094554, 1488854784.094554, -1.069946, +0.127197, -0.332764, +6.392375, -16.053455, +4.151146 
1488854784.098499, 1488854784.098499, -1.069946, +0.127197, -0.332764, +4.561320, -16.877430, +4.959862 
1488854784.102675, 1488854784.102675, -1.069946, +0.127197, -0.332764, +4.561320, -16.877430, +4.959862 
1488854784.106953, 1488854784.106953, -1.076050, +0.114258, -0.368530, +4.561320, -16.877430, +4.959862 
1488854784.111003, 1488854784.111003, -1.076050, +0.114258, -0.368530, +5.034343, -16.679066, +5.814354 
1488854784.114964, 1488854784.114964, -1.076050, +0.114258, -0.368530, +5.034343, -16.679066, +5.814354 
1488854784.118921, 1488854784.118921, -1.076050, +0.114258, -0.368530, +5.034343, -16.679066, +5.814354 
1488854784.122864, 1488854784.122864, -1.076050, +0.114258, -0.368530, +4.851237, -17.472523, +6.790916 
1488854784.126635, 1488854784.126635, -1.081421, +0.184082, -0.288452, +4.851237, -17.472523, +6.790916 
1488854784.130384, 1488854784.130384, -1.081421, +0.184082, -0.288452, +4.851237, -17.472523, +6.790916 
1488854784.134145, 1488854784.134145, -1.081421, +0.184082, -0.288452, +4.683391, -19.303577, +6.302635 
1488854784.137895, 1488854784.137895, -1.081421, +0.184082, -0.288452, +4.683391, -19.303577, +6.302635 
1488854784.141648, 1488854784.141648, -1.081421, +0.184082, -0.288452, +4.683391, -19.303577, +5.097191 
1488854784.145423, 1488854784.145423, -1.054810, +0.223145, -0.316040, +4.897014, -18.830555, +5.097191 
1488854784.149171, 1488854784.149171, -1.054810, +0.223145, -0.316040, +4.897014, -18.830555, +5.097191 
1488854784.152927, 1488854784.152927, -1.054810, +0.223145, -0.316040, +4.897014, -18.403309, +4.242699 
1488854784.156847, 1488854784.156847, -1.054810, +0.223145, -0.316040, +4.790202, -18.403309, +4.242699 
1488854784.160604, 1488854784.160604, -1.054810, +0.223145, -0.316040, +4.790202, -18.403309, +4.242699 
1488854784.164438, 1488854784.164438, -1.084229, +0.184937, -0.304199, +2.821818, -17.243641, +3.464500 
1488854784.168380, 1488854784.168380, -1.084229, +0.184937, -0.304199, +2.821818, -17.243641, +3.464500 
1488854784.172321, 1488854784.172321, -1.084229, +0.184937, -0.304199, +2.821818, -17.243641, +3.464500 
1488854784.176153, 1488854784.176153, -1.084229, +0.184937, -0.304199, +2.333537, -16.267078, +2.793113 
1488854784.179904, 1488854784.179904, -1.084229, +0.184937, -0.304199, +2.333537, -16.267078, +2.793113 
1488854784.183733, 1488854784.183733, -1.061523, +0.163330, -0.333496, +2.333537, -16.267078, +2.793113 
1488854784.187684, 1488854784.187684, -1.061523, +0.163330, -0.333496, +0.990764, -15.076893, +1.633446 
1488854784.191622, 1488854784.191622, -1.061523, +0.163330, -0.333496, +0.990764, -15.076893, +1.633446 
1488854784.195586, 1488854784.195586, -1.061523, +0.163330, -0.333496, +0.990764, -15.076893, +1.633446 
1488854784.199534, 1488854784.199534, -1.061523, +0.163330, -0.333496, +1.189128, -14.954823, +1.892845 
1488854784.203499, 1488854784.203499, -1.091309, +0.186157, -0.284424, +1.189128, -14.954823, +1.892845 
1488854784.207452, 1488854784.207452, -1.091309, +0.186157, -0.284424, +1.189128, -16.282337, +2.762596 
1488854784.211390, 1488854784.211390, -1.091309, +0.186157, -0.284424, +1.128093, -16.282337, +2.762596 
1488854784.215355, 1488854784.215355, -1.091309, +0.186157, -0.284424, +1.128093, -16.282337, +2.762596 
1488854784.219434, 1488854784.219434, -1.091309, +0.186157, -0.284424, +1.387492, -17.075794, +2.274315 
1488854784.223752, 1488854784.223752, -1.097168, +0.201416, -0.303955, +1.387492, -17.075794, +2.274315 
1488854784.227502, 1488854784.227502, -1.097168, +0.201416, -0.303955, +1.387492, -17.075794, +2.274315 
1488854784.231262, 1488854784.231262, -1.097168, +0.201416, -0.303955, +1.509563, -18.449085, +1.450340 
1488854784.235152, 1488854784.235152, -1.097168, +0.201416, -0.303955, +1.509563, -18.449085, +1.450340 
1488854784.239099, 1488854784.239099, -1.097168, +0.201416, -0.303955, +1.509563, -18.449085, +1.450340 
1488854784.243053, 1488854784.243053, -1.034668, +0.182251, -0.305420, +0.853435, -20.234364, +1.450340 
1488854784.247003, 1488854784.247003, -1.045410, +0.182251, -0.305420, +0.853435, -20.234364, +1.450340 
1488854784.250948, 1488854784.250948, -1.045410, +0.182251, -0.305420, +0.853435, -22.080677, +1.297752 
1488854784.254823, 1488854784.254823, -1.045410, +0.182251, -0.305420, -0.626668, -22.080677, +1.297752 
1488854784.258572, 1488854784.258572, -1.045410, +0.182251, -0.305420, -0.626668, -22.080677, +1.297752 
1488854784.262428, 1488854784.262428, -1.045410, +0.182251, -0.329468, -0.977620, -22.309559, +2.075950 
1488854784.266200, 1488854784.266200, -1.049805, +0.175293, -0.329468, -0.977620, -22.309559, +2.075950 
1488854784.269954, 1488854784.269954, -1.049805, +0.175293, -0.329468, -0.977620, -22.309559, +2.075950 
1488854784.273802, 1488854784.273802, -1.049805, +0.175293, -0.329468, +0.700847, -22.279041, +3.754417 
1488854784.277559, 1488854784.277559, -1.049805, +0.175293, -0.329468, +0.700847, -22.279041, +3.754417 
1488854784.281313, 1488854784.281313, -1.049805, +0.175293, -0.329468, +0.700847, -22.279041, +3.754417 
1488854784.285262, 1488854784.285262, -1.100464, +0.184204, -0.241089, -0.168904, -22.950428, +5.295555 
1488854784.289209, 1488854784.289209, -1.100464, +0.184204, -0.241089, -0.168904, -22.950428, +5.295555 
1488854784.293205, 1488854784.293205, -1.100464, +0.184204, -0.241089, -0.168904, -22.950428, +5.295555 
1488854784.297156, 1488854784.297156, -1.100464, +0.184204, -0.241089, -0.306233, -22.584217, +5.158226 
1488854784.301097, 1488854784.301097, -1.100464, +0.184204, -0.241089, -0.306233, -22.584217, +5.158226 
1488854784.305092, 1488854784.305092, -1.083740, +0.223755, -0.243164, -0.306233, -22.584217, +5.585472 
1488854784.309030, 1488854784.309030, -1.083740, +0.223755, -0.243164, -0.535115, -22.172230, +5.585472 
1488854784.312987, 1488854784.312987, -1.083740, +0.223755, -0.243164, -0.535115, -22.172230, +5.585472 
1488854784.316736, 1488854784.316736, -1.083740, +0.223755, -0.243164, -1.130208, -21.806019, +5.036156 
1488854784.320488, 1488854784.320488, -1.083740, +0.223755, -0.243164, -1.130208, -21.806019, +5.036156 
1488854784.324390, 1488854784.324390, -1.094116, +0.247559, -0.262695, -1.130208, -21.806019, +5.036156 
1488854784.328137, 1488854784.328137, -1.094116, +0.247559, -0.262695, -2.869710, -21.958607, +4.410545 
1488854784.331888, 1488854784.331888, -1.094116, +0.247559, -0.262695, -2.869710, -21.958607, +4.410545 
1488854784.335864, 1488854784.335864, -1.094116, +0.247559, -0.262695, -2.869710, -21.958607, +4.410545 
1488854784.339893, 1488854784.339893, -1.094116, +0.247559, -0.262695, -4.899129, -23.789661, +3.800194 
1488854784.343881, 1488854784.343881, -1.122192, +0.195557, -0.311646, -4.899129, -23.789661, +3.800194 
1488854784.347826, 1488854784.347826, -1.122192, +0.195557, -0.311646, -4.899129, -23.789661, +3.800194 
1488854784.351768, 1488854784.351768, -1.122192, +0.195557, -0.311646, -5.539998, -27.909534, +3.708641 
1488854784.355720, 1488854784.355720, -1.122192, +0.195557, -0.311646, -5.539998, -27.909534, +3.708641 
1488854784.359660, 1488854784.359660, -1.122192, +0.195557, -0.311646, -5.539998, -31.815784, +4.776756 
1488854784.363607, 1488854784.363607, -1.089966, +0.186401, -0.307129, -5.738362, -32.227772, +4.776756 
1488854784.367555, 1488854784.367555, -1.089966, +0.186401, -0.307129, -5.738362, -32.227772, +4.776756 
1488854784.371497, 1488854784.371497, -1.089966, +0.186401, -0.307129, -5.219563, -33.402699, +6.272118 
1488854784.375363, 1488854784.375363, -1.089966, +0.186401, -0.307129, -5.219563, -33.402699, +6.272118 
1488854784.379104, 1488854784.379104, -1.089966, +0.186401, -0.307129, -5.219563, -33.402699, +6.272118 
1488854784.382847, 1488854784.382847, -1.139771, +0.246948, -0.240723, -2.259358, -33.219593, +6.287376 
1488854784.386715, 1488854784.386715, -1.139771, +0.246948, -0.240723, -2.259358, -33.219593, +6.287376 
1488854784.390455, 1488854784.390455, -1.139771, +0.246948, -0.240723, -2.259358, -33.219593, +6.287376 
1488854784.394393, 1488854784.394393, -1.139771, +0.246948, -0.240723, -2.854451, -32.334583, +4.654686 
1488854784.398363, 1488854784.398363, -1.139771, +0.246948, -0.240723, -2.854451, -32.334583, +4.654686 
1488854784.402142, 1488854784.402142, -1.116821, +0.223022, -0.234985, -2.854451, -32.334583, +4.654686 
1488854784.406188, 1488854784.406188, -1.116821, +0.223022, -0.234985, -4.136189, -32.441395, +3.479759 
1488854784.410205, 1488854784.410205, -1.116821, +0.223022, -0.234985, -4.136189, -32.441395, +3.479759 
1488854784.415106, 1488854784.415106, -1.116821, +0.223022, -0.234985, -6.974324, -33.173817, +2.320091 
1488854784.418843, 1488854784.418843, -1.116821, +0.223022, -0.234985, -6.974324, -33.173817, +2.320091 
1488854784.422589, 1488854784.422589, -1.039185, +0.144653, -0.266602, -6.974324, -33.173817, +2.320091 
1488854784.426432, 1488854784.426432, -1.039185, +0.144653, -0.266602, -6.196126, -33.799427, +3.021995 
1488854784.430178, 1488854784.430178, -1.039185, +0.144653, -0.266602, -6.196126, -33.799427, +3.021995 
1488854784.433937, 1488854784.433937, -1.039185, +0.144653, -0.266602, -6.196126, -33.799427, +3.021995 
1488854784.437675, 1488854784.437675, -1.039185, +0.144653, -0.266602, -3.098592, -34.943836, +4.624168 
1488854784.441416, 1488854784.441416, -1.039185, +0.247314, -0.234619, -3.098592, -34.943836, +4.624168 
1488854784.445214, 1488854784.445214, -1.113403, +0.247314, -0.234619, -3.098592, -34.943836, +4.624168 
1488854784.448959, 1488854784.448959, -1.113403, +0.247314, -0.234619, -0.153645, -36.500233, +6.577293 
1488854784.452693, 1488854784.452693, -1.113403, +0.247314, -0.234619, -0.153645, -36.500233, +6.577293 
1488854784.456452, 1488854784.456452, -1.113403, +0.247314, -0.234619, -0.153645, -36.500233, +6.577293 
1488854784.460195, 1488854784.460195, -1.113403, +0.247314, -0.234619, +1.280681, -38.956898, +7.599632 
1488854784.464036, 1488854784.464036, -1.170654, +0.276123, -0.268188, +1.280681, -38.956898, +7.599632 
1488854784.467784, 1488854784.467784, -1.170654, +0.276123, -0.268188, +1.280681, -38.956898, +7.599632 
1488854784.471527, 1488854784.471527, -1.170654, +0.276123, -0.268188, -0.870808, -42.695301, +8.087914 
1488854784.475391, 1488854784.475391, -1.170654, +0.276123, -0.268188, -0.870808, -42.695301, +8.087914 
1488854784.479146, 1488854784.479146, -1.170654, +0.276123, -0.268188, -0.870808, -42.695301, +8.087914 
1488854784.482900, 1488854784.482900, -1.165527, +0.276367, -0.277222, -3.037557, -44.282215, +7.935326 
1488854784.486843, 1488854784.486843, -1.165527, +0.276367, -0.277222, -3.037557, -44.282215, +7.935326 
1488854784.490792, 1488854784.490792, -1.165527, +0.276367, -0.277222, -6.943807, -46.326893, +8.225243 
1488854784.494746, 1488854784.494746, -1.165527, +0.276367, -0.277222, -5.555257, -46.326893, +8.225243 
1488854784.498690, 1488854784.498690, -1.165527, +0.276367, -0.277222, -5.555257, -46.326893, +8.225243 
1488854784.502638, 1488854784.502638, -1.190308, +0.239258, -0.252563, -6.104573, -47.532337, +8.896629 
1488854784.506415, 1488854784.506415, -1.190308, +0.239258, -0.252563, -6.104573, -47.532337, +8.896629 
1488854784.510168, 1488854784.510168, -1.190308, +0.239258, -0.252563, -6.104573, -47.532337, +8.896629 
1488854784.514035, 1488854784.514035, -1.190308, +0.239258, -0.252563, -6.074056, -47.944324, +9.812157 
1488854784.517788, 1488854784.517788, -1.190308, +0.239258, -0.252563, -6.074056, -47.944324, +9.812157 
1488854784.521541, 1488854784.521541, -1.191284, +0.207642, -0.209961, -6.074056, -47.944324, +9.812157 
1488854784.525297, 1488854784.525297, -1.191284, +0.207642, -0.209961, -8.545979, -48.142689, +9.781639 
1488854784.529059, 1488854784.529059, -1.191284, +0.207642, -0.209961, -8.545979, -48.142689, +9.781639 
1488854784.532945, 1488854784.532945, -1.191284, +0.207642, -0.209961, -8.545979, -48.142689, +9.781639 
1488854784.537342, 1488854784.537342, -1.191284, +0.207642, -0.209961, -9.400472, -47.837513, +10.376732 
1488854784.541286, 1488854784.541286, -1.160889, +0.277832, -0.255249, -9.400472, -47.837513, +10.376732 
1488854784.545283, 1488854784.545283, -1.160889, +0.277832, -0.255249, -9.400472, -47.440784, +11.780540 
1488854784.549232, 1488854784.549232, -1.160889, +0.277832, -0.255249, -10.789021, -47.440784, +11.780540 
1488854784.553226, 1488854784.553226, -1.160889, +0.277832, -0.255249, -10.789021, -47.440784, +11.780540 
1488854784.557184, 1488854784.557184, -1.160889, +0.277832, -0.255249, -13.947591, -47.608631, +12.711327 
1488854784.561243, 1488854784.561243, -1.191650, +0.321045, -0.246704, -13.947591, -47.608631, +12.711327 
1488854784.565110, 1488854784.565110, -1.191650, +0.321045, -0.246704, -13.947591, -47.608631, +12.711327 
1488854784.568868, 1488854784.568868, -1.191650, +0.321045, -0.246704, -17.747028, -48.371571, +13.291161 
1488854784.572622, 1488854784.572622, -1.191650, +0.321045, -0.246704, -17.747028, -48.371571, +13.291161 
1488854784.576391, 1488854784.576391, -1.191650, +0.321045, -0.246704, -17.747028, -48.371571, +13.291161 
1488854784.580146, 1488854784.580146, -1.191650, +0.321045, -0.313599, -22.217854, -48.692005, +14.984886 
1488854784.584097, 1488854784.584097, -1.266846, +0.337158, -0.313599, -22.217854, -48.692005, +14.984886 
1488854784.587850, 1488854784.587850, -1.266846, +0.337158, -0.313599, -22.217854, -48.692005, +14.984886 
1488854784.591608, 1488854784.591608, -1.266846, +0.337158, -0.313599, -28.168781, -48.630970, +16.587059 
1488854784.595618, 1488854784.595618, -1.266846, +0.337158, -0.313599, -28.168781, -48.630970, +16.587059 
1488854784.599570, 1488854784.599570, -1.266846, +0.337158, -0.219849, -28.168781, -50.751942, +19.364159 
1488854784.603523, 1488854784.603523, -1.383179, +0.265259, -0.238159, -35.813435, -50.751942, +19.364159 
1488854784.607470, 1488854784.607470, -1.383179, +0.265259, -0.238159, -35.813435, -50.751942, +19.364159 
1488854784.611420, 1488854784.611420, -1.383179, +0.265259, -0.238159, -41.352375, -56.992786, +20.600121 
1488854784.615266, 1488854784.615266, -1.383179, +0.265259, -0.238159, -41.352375, -56.992786, +20.600121 
1488854784.619027, 1488854784.619027, -1.383179, +0.265259, -0.238159, -41.352375, -56.992786, +20.600121 
1488854784.622774, 1488854784.622774, -1.364380, +0.144165, -0.263428, -43.244465, -65.186752, +23.194115 
1488854784.626683, 1488854784.626683, -1.364380, +0.144165, -0.263428, -43.244465, -65.186752, +23.194115 
1488854784.630430, 1488854784.630430, -1.364380, +0.144165, -0.263428, -43.244465, -65.186752, +23.194115 
1488854784.634400, 1488854784.634400, -1.364380, +0.144165, -0.263428, -45.411213, -72.480453, +27.878563 
1488854784.638142, 1488854784.638142, -1.364380, +0.144165, -0.263428, -45.411213, -72.480453, +27.878563 
1488854784.642186, 1488854784.642186, -1.355591, +0.153198, -0.219971, -45.411213, -72.480453, +27.878563 
1488854784.645981, 1488854784.645981, -1.355591, +0.153198, -0.219971, -50.156696, -79.331650, +31.616966 
1488854784.649726, 1488854784.649726, -1.355591, +0.153198, -0.219971, -50.156696, -79.331650, +31.616966 
1488854784.653526, 1488854784.653526, -1.355591, +0.153198, -0.219971, -50.156696, -79.331650, +35.523216 
1488854784.657273, 1488854784.657273, -1.355591, +0.153198, -0.219971, -55.848225, -84.611191, +35.965721 
1488854784.661023, 1488854784.661023, -1.367065, +0.220215, -0.174683, -55.848225, -84.611191, +35.965721 
1488854784.664963, 1488854784.664963, -1.367065, +0.220215, -0.174683, -55.848225, -88.517441, +40.680687 
1488854784.668707, 1488854784.668707, -1.367065, +0.220215, -0.174683, -61.936481, -88.746323, +40.680687 
1488854784.672453, 1488854784.672453, -1.367065, +0.220215, -0.174683, -61.936481, -88.746323, +40.680687 
1488854784.676299, 1488854784.676299, -1.367065, +0.220215, -0.174683, -69.260704, -92.240585, +43.961327 
1488854784.680042, 1488854784.680042, -1.398315, +0.210571, -0.150269, -69.260704, -92.240585, +43.961327 
1488854784.684033, 1488854784.684033, -1.380737, +0.210571, -0.150269, -69.260704, -92.240585, +43.961327 
1488854784.687858, 1488854784.687858, -1.380737, +0.210571, -0.150269, -76.417076, -93.217148, +45.365135 
1488854784.691600, 1488854784.691600, -1.380737, +0.210571, -0.150269, -76.417076, -93.217148, +45.365135 
1488854784.695494, 1488854784.695494, -1.380737, +0.210571, -0.150269, -76.417076, -93.217148, +45.365135 
1488854784.699237, 1488854784.699237, -1.380737, +0.210571, -0.176025, -82.612144, -92.286362, +45.685570 
1488854784.703021, 1488854784.703021, -1.295532, +0.224976, -0.176025, -82.612144, -92.286362, +45.685570 
1488854784.706974, 1488854784.706974, -1.295532, +0.224976, -0.176025, -82.612144, -92.286362, +45.685570 
1488854784.711038, 1488854784.711038, -1.295532, +0.224976, -0.176025, -87.235558, -89.265121, +45.838158 
1488854784.714917, 1488854784.714917, -1.295532, +0.224976, -0.176025, -87.235558, -89.265121, +45.838158 
1488854784.718670, 1488854784.718670, -1.295532, +0.224976, -0.176025, -87.235558, -89.265121, +45.838158 
1488854784.722422, 1488854784.722422, -1.264893, +0.248413, -0.059448, -91.263878, -87.342514, +46.906273 
1488854784.726187, 1488854784.726187, -1.264893, +0.248413, -0.059448, -91.263878, -87.342514, +46.906273 
1488854784.729935, 1488854784.729935, -1.264893, +0.248413, -0.059448, -91.263878, -87.342514, +47.287743 
1488854784.733694, 1488854784.733694, -1.264893, +0.248413, -0.059448, -94.208824, -86.457504, +47.287743 
1488854784.737442, 1488854784.737442, -1.264893, +0.248413, -0.059448, -94.208824, -86.457504, +47.287743 
1488854784.741196, 1488854784.741196, -1.106567, +0.270996, +0.000732, -94.208824, -82.551254, +47.608177 
1488854784.745122, 1488854784.745122, -1.106567, +0.270996, +0.000732, -95.093834, -83.176865, +47.608177 
1488854784.749074, 1488854784.749074, -1.106567, +0.270996, +0.000732, -95.093834, -83.176865, +47.608177 
1488854784.753033, 1488854784.753033, -1.106567, +0.270996, +0.000732, -95.994102, -80.720200, +51.239769 
1488854784.756983, 1488854784.756983, -1.106567, +0.270996, +0.000732, -95.994102, -80.720200, +51.239769 
1488854784.761075, 1488854784.761075, -1.109863, +0.412964, +0.240112, -95.994102, -80.720200, +51.239769 
1488854784.765240, 1488854784.765240, -1.109863, +0.412964, +0.240112, -92.545616, -79.865707, +55.191795 
1488854784.768999, 1488854784.768999, -1.109863, +0.412964, +0.240112, -92.545616, -79.865707, +55.191795 
1488854784.772746, 1488854784.772746, -1.109863, +0.412964, +0.240112, -92.545616, -79.865707, +55.191795 
1488854784.776539, 1488854784.776539, -1.109863, +0.412964, +0.240112, -87.739098, -75.333847, +54.352562 
1488854784.780285, 1488854784.780285, -0.931274, +0.238525, +0.170776, -87.739098, -75.333847, +54.352562 
1488854784.784126, 1488854784.784126, -0.931274, +0.238525, +0.170776, -87.739098, -75.333847, +50.446312 
1488854784.788078, 1488854784.788078, -0.931274, +0.238525, +0.170776, -87.510216, -69.016708, +50.598900 
1488854784.792029, 1488854784.792029, -0.931274, +0.238525, +0.170776, -87.510216, -69.016708, +50.598900 
1488854784.795846, 1488854784.795846, -0.931274, +0.238525, +0.170776, -87.510216, -61.433094, +46.173851 
1488854784.799596, 1488854784.799596, -0.751221, +0.214844, +0.148193, -87.525475, -61.433094, +46.173851 
1488854784.803357, 1488854784.803357, -0.751221, +0.214844, +0.148193, -87.525475, -61.433094, +46.173851 
1488854784.807115, 1488854784.807115, -0.751221, +0.214844, +0.148193, -85.312950, -51.652210, +43.549339 
1488854784.810872, 1488854784.810872, -0.751221, +0.214844, +0.148193, -85.312950, -51.652210, +43.549339 
1488854784.814764, 1488854784.814764, -0.751221, +0.214844, +0.148193, -85.312950, -51.652210, +43.549339 
1488854784.818518, 1488854784.818518, -0.751221, +0.089844, -0.008667, -79.880821, -38.758533, +39.261620 
1488854784.822270, 1488854784.822270, -0.653198, +0.082642, -0.008667, -79.880821, -38.758533, +39.261620 
1488854784.826123, 1488854784.826123, -0.653198, +0.082642, -0.008667, -79.880821, -38.758533, +39.261620 
1488854784.829878, 1488854784.829878, -0.653198, +0.082642, -0.008667, -78.721153, -27.253407, +27.848045 
1488854784.833704, 1488854784.833704, -0.653198, +0.082642, -0.008667, -78.721153, -27.253407, +27.848045 
1488854784.837658, 1488854784.837658, -0.653198, +0.082642, -0.008667, -78.721153, -27.253407, +27.848045 
1488854784.841610, 1488854784.841610, -0.687866, -0.132568, +0.047729, -80.124962, -19.837635, +12.451927 
1488854784.845568, 1488854784.845568, -0.687866, -0.132568, +0.047729, -80.124962, -19.837635, +12.451927 
1488854784.849525, 1488854784.849525, -0.687866, -0.132568, +0.047729, -80.124962, -19.837635, +0.733177 
1488854784.853476, 1488854784.853476, -0.687866, -0.132568, +0.047729, -82.856285, -15.229481, -2.623757 
1488854784.857531, 1488854784.857531, -0.687866, -0.132568, +0.047729, -82.856285, -15.229481, -2.623757 
1488854784.861473, 1488854784.861473, -0.693970, -0.240234, +0.182983, -78.599083, -10.102528, -15.990456 
1488854784.865423, 1488854784.865423, -0.693970, -0.240234, +0.182983, -78.599083, -10.102528, -15.990456 
1488854784.869369, 1488854784.869369, -0.693970, -0.240234, +0.182983, -78.599083, -10.102528, -15.990456 
1488854784.873313, 1488854784.873313, -0.693970, -0.240234, +0.182983, -66.468346, -2.335804, -25.725563 
1488854784.877060, 1488854784.877060, -0.693970, -0.240234, +0.182983, -66.468346, -2.335804, -25.725563 
1488854784.880932, 1488854784.880932, -0.670044, -0.250366, +0.240234, -66.468346, -2.335804, -25.725563 
1488854784.885020, 1488854784.885020, -0.670044, -0.250366, +0.240234, -48.356159, +6.224377, -32.546242 
1488854784.888978, 1488854784.888978, -0.670044, -0.250366, +0.240234, -48.356159, +6.224377, -32.546242 
1488854784.892922, 1488854784.892922, -0.670044, -0.250366, +0.240234, -48.356159, +6.224377, -32.546242 
1488854784.896919, 1488854784.896919, -0.670044, -0.250366, +0.240234, -28.153522, +13.701183, -38.222511 
1488854784.900872, 1488854784.900872, -0.670410, -0.104248, +0.309326, -28.153522, +13.701183, -38.222511 
1488854784.904831, 1488854784.904831, -0.670410, -0.104248, +0.309326, -8.622273, +21.040661, -42.403419 
1488854784.908778, 1488854784.908778, -0.670410, -0.104248, +0.309326, -8.637532, +21.040661, -42.403419 
1488854784.912727, 1488854784.912727, -0.670410, -0.104248, +0.309326, -8.637532, +21.040661, -42.403419 
1488854784.916531, 1488854784.916531, -0.670410, -0.104248, +0.309326, +8.894816, +28.990490, -46.050270 
1488854784.920284, 1488854784.920284, -0.687134, +0.115479, +0.199097, +8.894816, +28.990490, -46.050270 
1488854784.924076, 1488854784.924076, -0.687134, +0.115479, +0.199097, +8.894816, +28.990490, -46.050270 
1488854784.927827, 1488854784.927827, -0.687134, +0.115479, +0.199097, +22.292034, +37.138683, -49.437721 
1488854784.931581, 1488854784.931581, -0.687134, +0.115479, +0.199097, +22.292034, +37.138683, -49.437721 
1488854784.935646, 1488854784.935646, -0.687134, +0.115479, +0.199097, +22.292034, +37.138683, -49.437721 
1488854784.939402, 1488854784.939402, -0.815918, +0.211304, +0.186157, +32.194988, +43.547375, -51.100929 
1488854784.943412, 1488854784.943412, -0.815918, +0.211304, +0.186157, +32.194988, +43.547375, -51.100929 
1488854784.947175, 1488854784.947175, -0.815918, +0.211304, +0.186157, +32.194988, +43.547375, -51.100929 
1488854784.950930, 1488854784.950930, -0.815918, +0.211304, +0.186157, +40.449993, +46.797497, -51.375587 
1488854784.954837, 1488854784.954837, -0.815918, +0.211304, +0.186157, +40.449993, +46.797497, -51.375587 
1488854784.958774, 1488854784.958774, -0.924316, +0.259155, +0.202759, +40.449993, +46.797497, -50.337990 
1488854784.962721, 1488854784.962721, -0.924316, +0.259155, +0.202759, +48.766033, +48.918468, -50.337990 
1488854784.966543, 1488854784.966543, -0.924316, +0.259155, +0.202759, +48.766033, +48.918468, -50.337990 
1488854784.970286, 1488854784.970286, -0.924316, +0.259155, +0.202759, +56.578533, +50.429089, -49.422462 
1488854784.974078, 1488854784.974078, -0.924316, +0.259155, +0.202759, +55.708782, +50.429089, -49.422462 
1488854784.977828, 1488854784.977828, -1.018066, +0.302368, +0.229492, +55.708782, +50.429089, -49.422462 
1488854784.981579, 1488854784.981579, -1.016479, +0.302368, +0.229492, +60.408489, +50.703747, -49.895485 
1488854784.985390, 1488854784.985390, -1.016479, +0.302368, +0.229492, +60.408489, +50.703747, -49.895485 
1488854784.989136, 1488854784.989136, -1.016479, +0.302368, +0.229492, +60.408489, +50.703747, -49.895485 
1488854784.992885, 1488854784.992885, -1.016479, +0.302368, +0.229492, +62.376873, +50.459606, -51.406105 
1488854784.996640, 1488854784.996640, -1.016479, +0.302368, +0.229492, +62.376873, +50.459606, -51.406105 
1488854785.000384, 1488854785.000384, -1.076538, +0.390015, +0.199341, +62.376873, +50.459606, -51.406105 
1488854785.004310, 1488854785.004310, -1.076538, +0.390015, +0.199341, +62.117474, +50.429089, -53.099831 
1488854785.008078, 1488854785.008078, -1.076538, +0.390015, +0.199341, +62.117474, +50.429089, -53.099831 
1488854785.011839, 1488854785.011839, -1.076538, +0.390015, +0.199341, +62.117474, +50.429089, -53.099831 
1488854785.015721, 1488854785.015721, -1.076538, +0.390015, +0.199341, +59.279339, +49.956066, -55.403908 
1488854785.019481, 1488854785.019481, -1.079102, +0.456543, +0.044312, +59.279339, +49.956066, -55.403908 
1488854785.023288, 1488854785.023288, -1.079102, +0.456543, +0.044312, +59.279339, +49.956066, -55.403908 
1488854785.027237, 1488854785.027237, -1.079102, +0.456543, +0.044312, +51.710979, +49.650890, -58.211525 
1488854785.031181, 1488854785.031181, -1.079102, +0.456543, +0.044312, +51.710979, +49.650890, -58.211525 
1488854785.035151, 1488854785.035151, -1.079102, +0.456543, +0.044312, +51.710979, +49.650890, -60.881813 
1488854785.039105, 1488854785.039105, -1.073730, +0.405396, -0.031738, +41.945354, +50.139172, -60.881813 
1488854785.043065, 1488854785.043065, -1.073730, +0.405396, -0.031738, +41.945354, +50.139172, -60.881813 
1488854785.047019, 1488854785.047019, -1.073730, +0.405396, -0.031738, +33.873455, +50.947887, -61.751564 
1488854785.050965, 1488854785.050965, -1.073730, +0.405396, -0.031738, +33.873455, +50.947887, -61.751564 
1488854785.054931, 1488854785.054931, -1.073730, +0.405396, -0.031738, +33.873455, +50.947887, -61.751564 
1488854785.058884, 1488854785.058884, -1.067749, +0.290649, -0.043335, +29.356853, +52.946789, -60.942848 
1488854785.062841, 1488854785.062841, -1.067749, +0.290649, -0.043335, +29.356853, +52.946789, -60.942848 
1488854785.066618, 1488854785.066618, -1.067749, +0.290649, -0.043335, +29.356853, +52.946789, -60.942848 
1488854785.070546, 1488854785.070546, -1.067749, +0.290649, -0.043335, +29.036419, +56.624157, -58.684547 
1488854785.074580, 1488854785.074580, -1.067749, +0.290649, -0.043335, +29.036419, +56.624157, -58.684547 
1488854785.078532, 1488854785.078532, -1.100708, +0.189697, -0.064087, +29.036419, +56.624157, -55.876930 
1488854785.082482, 1488854785.082482, -1.100708, +0.189697, -0.064087, +32.149212, +61.217052, -55.876930 
1488854785.086436, 1488854785.086436, -1.100708, +0.189697, -0.064087, +32.149212, +61.217052, -55.876930 
1488854785.090391, 1488854785.090391, -1.100708, +0.189697, -0.064087, +38.206951, +64.299332, -52.687843 
1488854785.094356, 1488854785.094356, -1.100708, +0.189697, -0.064087, +38.206951, +64.299332, -52.687843 
1488854785.098305, 1488854785.098305, -1.145020, +0.171753, -0.062134, +38.206951, +64.299332, -52.687843 
1488854785.102259, 1488854785.102259, -1.145020, +0.171753, -0.062134, +46.172039, +66.389786, -49.514015 
1488854785.106061, 1488854785.106061, -1.145020, +0.171753, -0.062134, +46.172039, +66.389786, -49.514015 
1488854785.109813, 1488854785.109813, -1.145020, +0.171753, -0.062134, +46.172039, +66.389786, -49.514015 
1488854785.113570, 1488854785.113570, -1.145020, +0.171753, -0.062134, +54.976360, +68.922745, -45.699318 
1488854785.117327, 1488854785.117327, -1.131836, +0.196167, -0.116821, +54.976360, +68.922745, -45.699318 
1488854785.121088, 1488854785.121088, -1.131836, +0.196167, -0.116821, +54.976360, +68.922745, -45.699318 
1488854785.124996, 1488854785.124996, -1.131836, +0.196167, -0.116821, +62.422649, +72.722183, -42.632301 
1488854785.128749, 1488854785.128749, -1.131836, +0.196167, -0.116821, +62.422649, +72.722183, -42.632301 
1488854785.132500, 1488854785.132500, -1.131836, +0.196167, -0.116821, +62.422649, +72.722183, -42.632301 
1488854785.136533, 1488854785.136533, -1.131836, +0.263794, -0.166748, +65.657509, +76.079117, -40.862282 
1488854785.140478, 1488854785.140478, -1.116333, +0.263794, -0.166748, +65.657509, +76.079117, -40.862282 
1488854785.144482, 1488854785.144482, -1.116333, +0.263794, -0.166748, +61.751263, +80.595718, -40.221413 
1488854785.148417, 1488854785.148417, -1.116333, +0.263794, -0.166748, +65.367592, +80.595718, -40.221413 
1488854785.152171, 1488854785.152171, -1.116333, +0.263794, -0.166748, +65.367592, +80.595718, -40.221413 
1488854785.156314, 1488854785.156314, -1.116333, +0.286255, -0.184448, +61.766521, +84.334122, -40.633400 
1488854785.160701, 1488854785.160701, -1.142212, +0.286255, -0.184448, +61.766521, +84.334122, -40.633400 
1488854785.164486, 1488854785.164486, -1.142212, +0.286255, -0.184448, +61.766521, +84.334122, -40.633400 
1488854785.168234, 1488854785.168234, -1.142212, +0.286255, -0.184448, +56.990520, +87.309586, -42.723854 
1488854785.172337, 1488854785.172337, -1.142212, +0.286255, -0.184448, +56.990520, +87.309586, -42.723854 
1488854785.176139, 1488854785.176139, -1.142212, +0.259277, -0.218506, +56.990520, +87.309586, -42.723854 
1488854785.179895, 1488854785.179895, -1.138550, +0.259277, -0.218506, +52.748577, +90.880142, -44.585426 
1488854785.183706, 1488854785.183706, -1.138550, +0.259277, -0.218506, +52.748577, +90.880142, -44.585426 
1488854785.187454, 1488854785.187454, -1.138550, +0.259277, -0.218506, +52.748577, +90.880142, -48.491676 
1488854785.191207, 1488854785.191207, -1.138550, +0.259277, -0.218506, +48.216717, +94.465958, -46.309669 
1488854785.195019, 1488854785.195019, -1.138550, +0.259277, -0.218506, +48.216717, +94.465958, -46.309669 
1488854785.198767, 1488854785.198767, -1.151733, +0.263794, -0.238037, +48.216717, +94.465958, -48.155983 
1488854785.202523, 1488854785.202523, -1.151733, +0.263794, -0.238037, +41.762249, +97.594009, -48.155983 
1488854785.206448, 1488854785.206448, -1.151733, +0.263794, -0.238037, +41.762249, +97.594009, -48.155983 
1488854785.210203, 1488854785.210203, -1.151733, +0.263794, -0.238037, +34.605877, +100.950943, -49.681862 
1488854785.214090, 1488854785.214090, -1.151733, +0.263794, -0.238037, +34.605877, +100.950943, -49.681862 
1488854785.217840, 1488854785.217840, -1.185669, +0.277832, -0.203491, +34.605877, +100.950943, -49.681862 
1488854785.221593, 1488854785.221593, -1.185669, +0.277832, -0.203491, +27.861492, +104.719864, -50.841530 
1488854785.225522, 1488854785.225522, -1.185669, +0.277832, -0.203491, +27.861492, +104.719864, -50.841530 
1488854785.229465, 1488854785.229465, -1.185669, +0.277832, -0.203491, +27.861492, +104.719864, -50.841530 
1488854785.233416, 1488854785.233416, -1.185669, +0.277832, -0.203491, +21.254436, +109.099136, -52.413185 
1488854785.237364, 1488854785.237364, -1.188965, +0.255493, -0.279419, +21.254436, +109.099136, -52.413185 
1488854785.241525, 1488854785.241525, -1.188965, +0.255493, -0.279419, +21.254436, +109.099136, -52.413185 
1488854785.245522, 1488854785.245522, -1.188965, +0.255493, -0.279419, +14.479533, +114.653336, -53.710182 
1488854785.249469, 1488854785.249469, -1.188965, +0.255493, -0.279419, +14.479533, +114.653336, -53.710182 
1488854785.253462, 1488854785.253462, -1.188965, +0.255493, -0.279419, +14.479533, +119.154678, -54.610451 
1488854785.257416, 1488854785.257416, -1.203979, +0.171265, -0.319946, +8.040324, +119.154678, -54.610451 
1488854785.261363, 1488854785.261363, -1.203979, +0.171265, -0.319946, +8.040324, +119.154678, -54.610451 
1488854785.265211, 1488854785.265211, -1.203979, +0.171265, -0.319946, +1.860515, +122.160660, -56.014259 
1488854785.268960, 1488854785.268960, -1.203979, +0.171265, -0.319946, +1.860515, +122.160660, -56.014259 
1488854785.272889, 1488854785.272889, -1.203979, +0.171265, -0.319946, +1.860515, +122.160660, -56.014259 
1488854785.277141, 1488854785.277141, -1.240967, +0.078247, -0.360229, -4.670247, +125.319229, -56.822975 
1488854785.281087, 1488854785.281087, -1.240967, +0.078247, -0.360229, -4.670247, +125.319229, -56.822975 
1488854785.285100, 1488854785.285100, -1.240967, +0.078247, -0.360229, -4.670247, +125.319229, -56.822975 
1488854785.289054, 1488854785.289054, -1.240967, +0.078247, -0.360229, -10.254964, +127.394424, -58.119972 
1488854785.293016, 1488854785.293016, -1.240967, +0.078247, -0.360229, -10.254964, +127.394424, -58.119972 
1488854785.296971, 1488854785.296971, -1.311401, +0.083252, -0.305054, -10.254964, +127.424942, -58.715065 
1488854785.300918, 1488854785.300918, -1.311401, +0.083252, -0.305054, -13.962850, +127.424942, -58.715065 
1488854785.304940, 1488854785.304940, -1.311401, +0.083252, -0.305054, -13.962850, +127.424942, -58.715065 
1488854785.308698, 1488854785.308698, -1.311401, +0.083252, -0.305054, -12.559041, +124.998795, -56.380470 
1488854785.312451, 1488854785.312451, -1.311401, +0.083252, -0.305054, -12.559041, +124.998795, -56.380470 
1488854785.316221, 1488854785.316221, -1.312378, +0.086548, -0.156250, -12.559041, +124.998795, -56.380470 
1488854785.319981, 1488854785.319981, -1.312378, +0.086548, -0.156250, -13.077840, +121.123062, -56.456764 
1488854785.323835, 1488854785.323835, -1.312378, +0.086548, -0.156250, -13.077840, +121.123062, -56.456764 
1488854785.327595, 1488854785.327595, -1.312378, +0.086548, -0.156250, -13.077840, +121.123062, -56.456764 
1488854785.331349, 1488854785.331349, -1.312378, +0.086548, -0.156250, -18.006428, +119.215714, -57.112892 
1488854785.335411, 1488854785.335411, -1.281128, +0.102661, -0.164307, -18.006428, +119.215714, -57.112892 
1488854785.339364, 1488854785.339364, -1.274048, +0.102661, -0.164307, -18.006428, +119.215714, -57.112892 
1488854785.343321, 1488854785.343321, -1.274048, +0.102661, -0.164307, -18.342121, +118.498550, -55.922707 
1488854785.347267, 1488854785.347267, -1.274048, +0.102661, -0.164307, -18.342121, +118.498550, -55.922707 
1488854785.351215, 1488854785.351215, -1.274048, +0.102661, -0.164307, -18.342121, +118.498550, -53.527077 
1488854785.355176, 1488854785.355176, -1.274048, +0.145752, -0.122681, -15.854939, +116.652237, -53.527077 
1488854785.359126, 1488854785.359126, -1.260986, +0.145752, -0.122681, -15.854939, +116.652237, -53.527077 
1488854785.363081, 1488854785.363081, -1.260986, +0.145752, -0.122681, -12.559041, +112.562881, -50.368507 
1488854785.366831, 1488854785.366831, -1.260986, +0.145752, -0.122681, -12.559041, +112.562881, -50.368507 
1488854785.370588, 1488854785.370588, -1.260986, +0.145752, -0.122681, -12.559041, +112.562881, -50.368507 
1488854785.374407, 1488854785.374407, -1.260986, +0.145752, -0.203125, -6.943807, +109.678970, -46.050270 
1488854785.378337, 1488854785.378337, -1.217651, +0.110474, -0.203125, -6.943807, +109.678970, -46.050270 
1488854785.382263, 1488854785.382263, -1.217651, +0.110474, -0.203125, -6.943807, +109.678970, -46.050270 
1488854785.386199, 1488854785.386199, -1.217651, +0.110474, -0.203125, -1.084432, +108.687149, -41.869362 
1488854785.390277, 1488854785.390277, -1.217651, +0.110474, -0.203125, -1.084432, +108.687149, -41.869362 
1488854785.394537, 1488854785.394537, -1.280151, +0.045044, -0.225708, -1.084432, +104.841934, -38.146217 
1488854785.398968, 1488854785.398968, -1.261719, +0.045044, -0.225708, +4.713908, +104.841934, -38.146217 
1488854785.402711, 1488854785.402711, -1.261719, +0.045044, -0.225708, +4.713908, +104.841934, -38.146217 
1488854785.406464, 1488854785.406464, -1.261719, +0.045044, -0.225708, +12.434855, +98.692642, -34.270485 
1488854785.410218, 1488854785.410218, -1.261719, +0.045044, -0.225708, +12.434855, +98.692642, -34.270485 
1488854785.413969, 1488854785.413969, -1.261719, +0.045044, -0.183594, +12.434855, +98.692642, -34.270485 
1488854785.417719, 1488854785.417719, -1.238525, +0.082397, -0.183594, +21.757977, +91.459976, -28.304298 
1488854785.421463, 1488854785.421463, -1.238525, +0.082397, -0.183594, +21.757977, +91.459976, -28.304298 
1488854785.425285, 1488854785.425285, -1.238525, +0.082397, -0.183594, +21.757977, +91.459976, -28.304298 
1488854785.429027, 1488854785.429027, -1.238525, +0.082397, -0.183594, +32.423870, +84.624039, -20.354469 
1488854785.432782, 1488854785.432782, -1.238525, +0.082397, -0.183594, +32.423870, +84.624039, -20.354469 
1488854785.436603, 1488854785.436603, -1.192871, +0.139404, -0.161987, +32.423870, +84.624039, -20.354469 
1488854785.440356, 1488854785.440356, -1.192871, +0.139404, -0.161987, +41.975872, +77.666031, -13.671120 
1488854785.444221, 1488854785.444221, -1.192871, +0.139404, -0.161987, +41.975872, +77.666031, -13.671120 
1488854785.447981, 1488854785.447981, -1.192871, +0.139404, -0.161987, +41.975872, +77.666031, -13.671120 
1488854785.451870, 1488854785.451870, -1.192871, +0.139404, -0.161987, +46.828167, +70.509659, -9.932716 
1488854785.455904, 1488854785.455904, -1.162354, +0.103271, -0.142578, +46.828167, +70.509659, -9.932716 
1488854785.459846, 1488854785.459846, -1.162354, +0.103271, -0.142578, +46.828167, +70.509659, -9.932716 
1488854785.463760, 1488854785.463760, -1.162354, +0.103271, -0.142578, +48.277752, +63.551647, -7.369240 
1488854785.467511, 1488854785.467511, -1.162354, +0.103271, -0.142578, +48.277752, +63.551647, -7.369240 
1488854785.471273, 1488854785.471273, -1.162354, +0.103271, -0.142578, +48.277752, +55.739147, -4.317482 
1488854785.475135, 1488854785.475135, -1.116211, +0.097046, -0.156860, +48.643963, +57.356579, -4.317482 
1488854785.479082, 1488854785.479082, -1.116211, +0.097046, -0.156860, +48.643963, +57.356579, -4.317482 
1488854785.483041, 1488854785.483041, -1.116211, +0.097046, -0.156860, +50.032513, +51.604015, -0.289162 
1488854785.486798, 1488854785.486798, -1.116211, +0.097046, -0.156860, +50.032513, +51.604015, -0.289162 
1488854785.490553, 1488854785.490553, -1.116211, +0.097046, -0.156860, +50.032513, +51.604015, -0.289162 
1488854785.494407, 1488854785.494407, -1.108521, +0.115356, -0.228394, +50.688641, +46.202404, +3.495018 
1488854785.498167, 1488854785.498167, -1.108521, +0.115356, -0.228394, +50.688641, +46.202404, +3.495018 
1488854785.501925, 1488854785.501925, -1.108521, +0.115356, -0.228394, +50.688641, +46.202404, +3.495018 
1488854785.505868, 1488854785.505868, -1.108521, +0.115356, -0.228394, +48.643963, +40.678722, +6.394188 
1488854785.509856, 1488854785.509856, -1.108521, +0.115356, -0.228394, +48.643963, +40.678722, +6.394188 
1488854785.514097, 1488854785.514097, -1.108521, +0.109375, -0.248047, +48.643963, +40.678722, +6.394188 
1488854785.517854, 1488854785.517854, -1.106445, +0.109375, -0.248047, +43.745892, +35.048229, +8.072655 
1488854785.521612, 1488854785.521612, -1.106445, +0.109375, -0.248047, +43.745892, +35.048229, +8.072655 
1488854785.525515, 1488854785.525515, -1.106445, +0.109375, -0.248047, +43.745892, +35.048229, +9.278099 
1488854785.529402, 1488854785.529402, -1.106445, +0.109375, -0.248047, +37.932293, +27.846081, +9.278099 
1488854785.533448, 1488854785.533448, -1.106445, +0.109375, -0.191284, +37.932293, +27.846081, +9.278099 
1488854785.537399, 1488854785.537399, -1.085327, +0.104004, -0.191284, +33.064739, +19.682629, +10.681908 
1488854785.541355, 1488854785.541355, -1.085327, +0.104004, -0.191284, +33.064739, +19.682629, +10.681908 
1488854785.545209, 1488854785.545209, -1.085327, +0.104004, -0.191284, +33.064739, +19.682629, +10.681908 
1488854785.548970, 1488854785.548970, -1.085327, +0.104004, -0.191284, +29.356853, +12.236340, +13.108055 
1488854785.552726, 1488854785.552726, -1.085327, +0.104004, -0.191284, +29.356853, +12.236340, +13.108055 
1488854785.556534, 1488854785.556534, -1.055054, +0.107544, -0.150879, +29.356853, +12.236340, +13.108055 
1488854785.560296, 1488854785.560296, -1.055054, +0.107544, -0.150879, +27.815716, +5.415661, +16.205589 
1488854785.564186, 1488854785.564186, -1.055054, +0.107544, -0.150879, +27.815716, +5.415661, +16.205589 
1488854785.568013, 1488854785.568013, -1.055054, +0.107544, -0.150879, +27.815716, +5.415661, +16.205589 
1488854785.571773, 1488854785.571773, -1.055054, +0.107544, -0.150879, +27.983562, -1.343982, +19.760887 
1488854785.575792, 1488854785.575792, -1.086792, +0.084839, -0.134399, +27.983562, -1.343982, +19.760887 
1488854785.579541, 1488854785.579541, -1.086792, +0.084839, -0.134399, +27.983562, -1.343982, +19.760887 
1488854785.583445, 1488854785.583445, -1.086792, +0.084839, -0.134399, +28.303997, -8.454578, +23.743431 
1488854785.587336, 1488854785.587336, -1.086792, +0.084839, -0.134399, +28.303997, -8.454578, +23.743431 
1488854785.591769, 1488854785.591769, -1.086792, +0.084839, -0.134399, +25.191204, -13.352650, +26.825706 
1488854785.595596, 1488854785.595596, -1.131226, +0.054565, -0.237183, +25.191204, -13.352650, +26.825706 
1488854785.599339, 1488854785.599339, -1.131226, +0.054565, -0.237183, +25.191204, -13.352650, +26.825706 
1488854785.603250, 1488854785.603250, -1.131226, +0.054565, -0.237183, +22.108929, -20.905750, +30.213158 
1488854785.606994, 1488854785.606994, -1.131226, +0.054565, -0.237183, +22.108929, -20.905750, +30.213158 
1488854785.610744, 1488854785.610744, -1.131226, +0.054565, -0.237183, +22.108929, -20.905750, +30.213158 
1488854785.614502, 1488854785.614502, -1.181152, +0.055542, -0.024170, +19.286053, -34.302967, +32.746117 
1488854785.618247, 1488854785.618247, -1.181152, +0.055542, -0.024170, +19.286053, -34.302967, +32.746117 
1488854785.622001, 1488854785.622001, -1.181152, +0.055542, -0.024170, +19.286053, -34.302967, +32.746117 
1488854785.625794, 1488854785.625794, -1.181152, +0.055542, -0.024170, +16.493694, -46.647327, +35.874168 
1488854785.629538, 1488854785.629538, -1.181152, +0.055542, -0.024170, +16.493694, -46.647327, +35.874168 
1488854785.633425, 1488854785.633425, -1.010620, -0.067139, -0.337769, +16.493694, -46.647327, +35.874168 
1488854785.637188, 1488854785.637188, -1.010620, -0.067139, -0.337769, +18.980877, -53.559559, +39.383690 
1488854785.640936, 1488854785.640936, -1.010620, -0.067139, -0.337769, +18.980877, -53.559559, +39.383690 
1488854785.644914, 1488854785.644914, -1.010620, -0.067139, -0.337769, +18.980877, -53.559559, +39.383690 
1488854785.648863, 1488854785.648863, -1.010620, -0.067139, -0.337769, +30.089275, -35.676258, +26.078026 
1488854785.652804, 1488854785.652804, -1.010620, -0.654297, -1.538086, +30.089275, -35.676258, +26.078026 
1488854785.656575, 1488854785.656575, -0.668701, -0.654297, -1.538086, +30.089275, -0.520008, +10.025780 
1488854785.660323, 1488854785.660323, -0.668701, -0.654297, -1.538086, +22.154705, -2.839344, +10.025780 
1488854785.664150, 1488854785.664150, -0.668701, -0.654297, -1.538086, +22.154705, -2.839344, +10.025780 
1488854785.668094, 1488854785.668094, -0.668701, -0.654297, -1.538086, -1.679524, +3.203137, +16.480247 
1488854785.672037, 1488854785.672037, -0.668701, -0.654297, -0.038086, -1.679524, +3.203137, +16.480247 
1488854785.675994, 1488854785.675994, -1.838257, -0.198608, -0.056152, -1.679524, +3.203137, +16.480247 
1488854785.679941, 1488854785.679941, -1.838257, -0.198608, -0.056152, -14.878377, -39.796131, +27.024071 
1488854785.683903, 1488854785.683903, -1.838257, -0.198608, -0.056152, -14.878377, -39.796131, +27.024071 
1488854785.687847, 1488854785.687847, -1.838257, -0.198608, -0.056152, -14.878377, -39.796131, +27.024071 
1488854785.691795, 1488854785.691795, -1.838257, -0.198608, -0.399902, -11.490926, -77.256454, +23.865501 
1488854785.695746, 1488854785.695746, -1.163452, +0.496948, -0.387207, -11.490926, -77.256454, +23.865501 
1488854785.699879, 1488854785.699879, -1.163452, +0.496948, -0.387207, -11.490926, -77.256454, +42.969505 
1488854785.704240, 1488854785.704240, -1.163452, +0.496948, -0.387207, -1.923665, -62.546986, +42.969505 
1488854785.707990, 1488854785.707990, -1.163452, +0.496948, -0.387207, -1.923665, -62.546986, +42.969505 
1488854785.711744, 1488854785.711744, -1.163452, +0.496948, -0.355957, +8.620158, -33.356922, +71.228783 
1488854785.715636, 1488854785.715636, -1.714600, +0.140503, -0.358154, +8.620158, -33.356922, +71.228783 
1488854785.719585, 1488854785.719585, -1.714600, +0.140503, -0.358154, +8.620158, -33.356922, +71.228783 
1488854785.723546, 1488854785.723546, -1.714600, +0.140503, -0.358154, +15.684978, -40.345448, +51.285545 
1488854785.727496, 1488854785.727496, -1.714600, +0.140503, -0.358154, +15.684978, -40.345448, +51.285545 
1488854785.731437, 1488854785.731437, -1.714600, +0.140503, -0.358154, +15.684978, -40.345448, +51.285545 
1488854785.735279, 1488854785.735279, -1.275757, -0.322266, -0.382812, -2.244100, -56.397694, +28.687279 
1488854785.739030, 1488854785.739030, -1.275757, -0.322266, -0.382812, -2.244100, -56.397694, +28.687279 
1488854785.742782, 1488854785.742782, -1.275757, -0.322266, -0.382812, -2.244100, -56.397694, +28.687279 
1488854785.746575, 1488854785.746575, -1.275757, -0.322266, -0.382812, -5.295857, -43.656605, +33.753197 
1488854785.750438, 1488854785.750438, -1.275757, -0.322266, -0.382812, -5.295857, -43.656605, +33.753197 
1488854785.754359, 1488854785.754359, -1.145142, -0.041504, -0.305420, -5.295857, -43.656605, +38.483421 
1488854785.758116, 1488854785.758116, -1.145142, -0.041504, -0.305420, +5.858317, -38.590687, +38.483421 
1488854785.761870, 1488854785.761870, -1.145142, -0.041504, -0.305420, +5.858317, -38.590687, +38.483421 
1488854785.765905, 1488854785.765905, -1.145142, -0.041504, -0.305420, +13.075725, -37.202137, +41.306297 
1488854785.769851, 1488854785.769851, -1.145142, -0.041504, -0.305420, +13.075725, -37.202137, +41.306297 
1488854785.773803, 1488854785.773803, -0.867554, +0.276001, -0.486572, +13.075725, -37.202137, +41.306297 
1488854785.777745, 1488854785.777745, -0.867554, +0.276001, -0.486572, +22.108929, -34.211414, +36.789696 
1488854785.781692, 1488854785.781692, -0.867554, +0.276001, -0.486572, +22.108929, -34.211414, +36.789696 
1488854785.785696, 1488854785.785696, -0.867554, +0.276001, -0.486572, +22.108929, -34.211414, +36.789696 
1488854785.789645, 1488854785.789645, -0.867554, +0.276001, -0.486572, +23.894207, -36.683338, +29.465477 
1488854785.793596, 1488854785.793596, -1.012695, +0.298584, -0.494141, +23.894207, -36.683338, +29.465477 
1488854785.797541, 1488854785.797541, -1.012695, +0.298584, -0.494141, +23.894207, -36.683338, +29.465477 
1488854785.801488, 1488854785.801488, -1.012695, +0.298584, -0.494141, +23.711102, -42.481678, +29.480736 
1488854785.805482, 1488854785.805482, -1.012695, +0.298584, -0.494141, +23.711102, -42.481678, +29.480736 
1488854785.809432, 1488854785.809432, -1.012695, +0.298584, -0.494141, +27.617352, -41.810291, +30.243675 
1488854785.813386, 1488854785.813386, -0.959351, -0.016846, -0.407104, +27.968304, -41.810291, +30.243675 
1488854785.817328, 1488854785.817328, -0.959351, -0.016846, -0.407104, +27.968304, -41.810291, +30.243675 
1488854785.821396, 1488854785.821396, -0.959351, -0.016846, -0.407104, +22.475140, -37.995594, +25.681297 
1488854785.825621, 1488854785.825621, -0.959351, -0.016846, -0.407104, +22.475140, -37.995594, +25.681297 
1488854785.829567, 1488854785.829567, -0.959351, -0.016846, -0.407104, +22.475140, -37.995594, +25.681297 
1488854785.833525, 1488854785.833525, -0.963867, +0.012207, -0.388916, +20.506756, -35.920399, +26.642601 
1488854785.837472, 1488854785.837472, -0.963867, +0.012207, -0.388916, +20.506756, -35.920399, +26.642601 
1488854785.841423, 1488854785.841423, -0.963867, +0.012207, -0.388916, +20.506756, -35.920399, +24.369041 
1488854785.845382, 1488854785.845382, -0.963867, +0.012207, -0.388916, +18.141644, -29.465931, +24.369041 
1488854785.849336, 1488854785.849336, -0.963867, +0.012207, -0.388916, +18.141644, -29.465931, +24.369041 
1488854785.853288, 1488854785.853288, -0.940918, +0.200928, -0.371948, +14.662639, -24.354237, +19.562523 
1488854785.857040, 1488854785.857040, -0.940918, +0.200928, -0.371948, +14.662639, -24.354237, +19.562523 
1488854785.860794, 1488854785.860794, -0.940918, +0.200928, -0.371948, +14.662639, -24.354237, +19.562523 
1488854785.864559, 1488854785.864559, -0.940918, +0.200928, -0.371948, +10.542766, -22.553699, +14.679710 
1488854785.868313, 1488854785.868313, -0.940918, +0.200928, -0.371948, +10.542766, -22.553699, +14.679710 
1488854785.872063, 1488854785.872063, -0.959106, +0.080322, -0.414795, +10.542766, -22.553699, +14.679710 
1488854785.875929, 1488854785.875929, -0.959106, +0.080322, -0.414795, +7.231608, -18.082874, +10.803978 
1488854785.879680, 1488854785.879680, -0.959106, +0.080322, -0.414795, +7.231608, -18.082874, +10.803978 
1488854785.883598, 1488854785.883598, -0.959106, +0.080322, -0.414795, +7.231608, -18.082874, +10.803978 
1488854785.887548, 1488854785.887548, -0.959106, +0.080322, -0.414795, +5.934611, -13.581532, +11.139671 
1488854785.891498, 1488854785.891498, -1.021606, +0.018188, -0.485962, +5.934611, -13.581532, +11.139671 
1488854785.895485, 1488854785.895485, -1.016479, +0.018188, -0.485962, +5.934611, -13.581532, +11.139671 
1488854785.899541, 1488854785.899541, -1.016479, +0.018188, -0.485962, +6.972209, -10.697620, +11.139671 
1488854785.903487, 1488854785.903487, -1.016479, +0.018188, -0.485962, +6.972209, -10.697620, +11.139671 
1488854785.907236, 1488854785.907236, -1.016479, +0.018188, -0.485962, +6.972209, -14.603870, +13.291161 
1488854785.910992, 1488854785.910992, -1.016479, +0.057983, -0.515381, +8.696452, -12.116688, +13.291161 
1488854785.914818, 1488854785.914818, -1.062500, +0.057983, -0.515381, +8.696452, -12.116688, +13.291161 
1488854785.918566, 1488854785.918566, -1.062500, +0.057983, -0.515381, +9.718791, -15.015858, +13.870995 
1488854785.922313, 1488854785.922313, -1.062500, +0.057983, -0.515381, +9.718791, -15.015858, +13.870995 
1488854785.926061, 1488854785.926061, -1.062500, +0.057983, -0.515381, +9.718791, -15.015858, +13.870995 
1488854785.929802, 1488854785.929802, -1.062500, +0.057983, -0.515381, +6.850139, -17.304676, +13.886253 
1488854785.933546, 1488854785.933546, -1.102905, +0.129517, -0.462036, +6.850139, -17.304676, +13.886253 
1488854785.937292, 1488854785.937292, -1.102905, +0.129517, -0.462036, +6.850139, -17.304676, +13.886253 
1488854785.941204, 1488854785.941204, -1.102905, +0.129517, -0.462036, +3.676311, -19.654530, +13.764183 
1488854785.945408, 1488854785.945408, -1.102905, +0.129517, -0.462036, +3.676311, -19.654530, +13.764183 
1488854785.949153, 1488854785.949153, -1.102905, +0.129517, -0.462036, +3.676311, -19.654530, +13.764183 
1488854785.952896, 1488854785.952896, -1.113647, +0.133301, -0.416748, +0.456706, -21.790760, +13.886253 
1488854785.956651, 1488854785.956651, -1.113647, +0.133301, -0.416748, +0.456706, -21.790760, +13.886253 
1488854785.960401, 1488854785.960401, -1.113647, +0.133301, -0.416748, +0.456706, -21.790760, +13.886253 
1488854785.964220, 1488854785.964220, -1.113647, +0.133301, -0.416748, -3.602132, -22.416370, +12.635033 
1488854785.968165, 1488854785.968165, -1.113647, +0.133301, -0.416748, -3.602132, -22.416370, +12.635033 
1488854785.972113, 1488854785.972113, -1.140137, +0.096069, -0.347534, -3.602132, -22.416370, +10.941307 
1488854785.975951, 1488854785.975951, -1.140137, +0.096069, -0.347534, -4.929646, -22.782581, +10.941307 
1488854785.980211, 1488854785.980211, -1.140137, +0.096069, -0.347534, -4.929646, -22.782581, +10.941307 
1488854785.983972, 1488854785.983972, -1.140137, +0.096069, -0.347534, -5.494222, -24.003284, +9.644310 
1488854785.987714, 1488854785.987714, -1.140137, +0.096069, -0.347534, -5.494222, -24.003284, +9.644310 
1488854785.991458, 1488854785.991458, -1.121338, +0.100952, -0.326294, -5.494222, -24.003284, +9.644310 
1488854785.995220, 1488854785.995220, -1.121338, +0.100952, -0.326294, -2.534017, -23.499744, +7.431786 
1488854785.998971, 1488854785.998971, -1.121338, +0.100952, -0.326294, -2.534017, -23.499744, +7.431786 
1488854786.002713, 1488854786.002713, -1.121338, +0.100952, -0.326294, -2.534017, -23.499744, +7.431786 
1488854786.006630, 1488854786.006630, -1.121338, +0.100952, -0.326294, -1.511678, -21.897572, +6.180565 
1488854786.010378, 1488854786.010378, -1.121338, +0.111450, -0.380493, -1.511678, -21.897572, +6.180565 
1488854786.014134, 1488854786.014134, -1.059570, +0.111450, -0.380493, -1.511678, -21.897572, +6.180565 
1488854786.017888, 1488854786.017888, -1.059570, +0.111450, -0.380493, -0.550374, -21.470325, +5.478661 
1488854786.021643, 1488854786.021643, -1.059570, +0.111450, -0.380493, -0.550374, -21.470325, +5.478661 
1488854786.025524, 1488854786.025524, -1.059570, +0.111450, -0.380493, -0.550374, -21.470325, +5.478661 
1488854786.029275, 1488854786.029275, -1.059570, +0.111450, -0.380493, +1.845256, -21.699207, +5.097191 
1488854786.033121, 1488854786.033121, -1.022339, +0.130615, -0.450073, +1.845256, -21.699207, +5.097191 
1488854786.037067, 1488854786.037067, -1.022339, +0.130615, -0.450073, +1.845256, -21.699207, +5.097191 
1488854786.041008, 1488854786.041008, -1.022339, +0.130615, -0.450073, -0.397786, -22.584217, +2.854149 
1488854786.044963, 1488854786.044963, -1.022339, +0.130615, -0.450073, -0.397786, -22.584217, +2.854149 
1488854786.049022, 1488854786.049022, -1.022339, +0.130615, -0.450073, -4.304036, -22.431629, +2.167503 
1488854786.053012, 1488854786.053012, -1.096069, +0.156616, -0.384399, -1.420125, -22.431629, +2.167503 
1488854786.056756, 1488854786.056756, -1.096069, +0.156616, -0.384399, -1.420125, -22.431629, +2.167503 
1488854786.060514, 1488854786.060514, -1.096069, +0.156616, -0.384399, -4.441365, -25.819080, +2.350609 
1488854786.064350, 1488854786.064350, -1.096069, +0.156616, -0.384399, -4.441365, -25.819080, +2.350609 
1488854786.068289, 1488854786.068289, -1.096069, +0.156616, -0.384399, -4.441365, -25.819080, +2.350609 
1488854786.072238, 1488854786.072238, -1.034180, +0.148438, -0.414795, -6.211385, -25.468128, +2.869407 
1488854786.076194, 1488854786.076194, -1.034180, +0.148438, -0.414795, -6.211385, -25.468128, +2.869407 
1488854786.080134, 1488854786.080134, -1.034180, +0.148438, -0.414795, -6.211385, -25.468128, +2.869407 
1488854786.084142, 1488854786.084142, -1.034180, +0.148438, -0.414795, -3.174886, -23.453968, +4.608910 
1488854786.088085, 1488854786.088085, -1.034180, +0.148438, -0.414795, -3.174886, -23.453968, +4.608910 
1488854786.092137, 1488854786.092137, -1.023682, +0.211060, -0.337769, -3.678426, -22.126453, +3.678123 
1488854786.096740, 1488854786.096740, -1.023682, +0.211060, -0.337769, -3.678426, -22.126453, +3.678123 
1488854786.100491, 1488854786.100491, -1.023682, +0.211060, -0.337769, -3.678426, -22.126453, +3.678123 
1488854786.104288, 1488854786.104288, -1.023682, +0.211060, -0.337769, -5.021199, -20.417469, +2.030174 
1488854786.108037, 1488854786.108037, -1.023682, +0.211060, -0.337769, -5.021199, -20.417469, +2.030174 
1488854786.111775, 1488854786.111775, -1.028198, +0.187866, -0.318237, -5.021199, -20.417469, +2.030174 
1488854786.115595, 1488854786.115595, -1.028198, +0.187866, -0.318237, -5.921468, -18.708485, +0.473778 
1488854786.119345, 1488854786.119345, -1.028198, +0.187866, -0.318237, -5.921468, -18.708485, +0.473778 
1488854786.123087, 1488854786.123087, -1.028198, +0.187866, -0.318237, -5.921468, -18.708485, +0.473778 
1488854786.126837, 1488854786.126837, -1.028198, +0.187866, -0.318237, -6.196126, -16.755360, -0.655373 
1488854786.130577, 1488854786.130577, -1.023804, +0.207397, -0.324585, -6.196126, -16.755360, -0.655373 
1488854786.134328, 1488854786.134328, -1.023804, +0.207397, -0.324585, -6.196126, -16.755360, -0.655373 
1488854786.138067, 1488854786.138067, -1.023804, +0.207397, -0.324585, -4.334554, -16.953724, -0.243386 
1488854786.141815, 1488854786.141815, -1.023804, +0.207397, -0.324585, -4.334554, -16.953724, -0.243386 
1488854786.145733, 1488854786.145733, -1.023804, +0.207397, -0.324585, -4.334554, -16.953724, -0.243386 
1488854786.149479, 1488854786.149479, -1.055054, +0.095459, -0.412109, -3.937825, -17.365711, +0.107567 
1488854786.153381, 1488854786.153381, -1.033691, +0.095459, -0.412109, -3.937825, -17.365711, +0.107567 
1488854786.157136, 1488854786.157136, -1.033691, +0.095459, -0.412109, -3.937825, -17.365711, +0.107567 
1488854786.160894, 1488854786.160894, -1.033691, +0.095459, -0.412109, -1.481160, -15.549915, +0.397484 
1488854786.164734, 1488854786.164734, -1.033691, +0.095459, -0.412109, -1.481160, -15.549915, +0.397484 
1488854786.168678, 1488854786.168678, -1.033691, +0.095459, -0.351440, -1.481160, -15.549915, +1.938621 
1488854786.172611, 1488854786.172611, -1.083984, +0.112183, -0.351440, -0.138387, -15.748280, +1.938621 
1488854786.176572, 1488854786.176572, -1.083984, +0.112183, -0.351440, -0.138387, -15.748280, +1.938621 
1488854786.180522, 1488854786.180522, -1.083984, +0.112183, -0.351440, -0.611409, -15.198963, +1.465599 
1488854786.184483, 1488854786.184483, -1.083984, +0.112183, -0.351440, -0.611409, -15.198963, +1.465599 
1488854786.188430, 1488854786.188430, -1.083984, +0.112183, -0.373047, -0.611409, -15.198963, +1.465599 
1488854786.192370, 1488854786.192370, -1.056396, +0.171265, -0.373047, +0.883952, -12.543934, +1.847069 
1488854786.196324, 1488854786.196324, -1.056396, +0.171265, -0.373047, +0.883952, -12.543934, +1.847069 
1488854786.200378, 1488854786.200378, -1.056396, +0.171265, -0.373047, +0.883952, -12.543934, +1.847069 
1488854786.204286, 1488854786.204286, -1.056396, +0.171265, -0.373047, +1.799480, -12.620228, +2.716820 
1488854786.208042, 1488854786.208042, -1.056396, +0.171265, -0.373047, +1.799480, -12.620228, +2.716820 
1488854786.211954, 1488854786.211954, -1.093140, +0.172607, -0.294800, +1.799480, -12.650745, +2.732078 
1488854786.216304, 1488854786.216304, -1.093140, +0.172607, -0.294800, +1.646892, -12.650745, +2.732078 
1488854786.220242, 1488854786.220242, -1.093140, +0.172607, -0.294800, +1.646892, -12.650745, +2.732078 
1488854786.224194, 1488854786.224194, -1.093140, +0.172607, -0.294800, +1.433269, -12.910145, +2.640526 
1488854786.228138, 1488854786.228138, -1.093140, +0.172607, -0.263550, +1.433269, -12.910145, +2.640526 
1488854786.232079, 1488854786.232079, -1.101685, +0.130493, -0.274292, +1.433269, -12.910145, +2.640526 
1488854786.236028, 1488854786.236028, -1.101685, +0.130493, -0.274292, +1.768962, -13.322132, +2.838890 
1488854786.239965, 1488854786.239965, -1.101685, +0.130493, -0.274292, +1.768962, -13.322132, +2.838890 
1488854786.243887, 1488854786.243887, -1.101685, +0.130493, -0.274292, +1.768962, -13.322132, +2.838890 
1488854786.247636, 1488854786.247636, -1.101685, +0.130493, -0.274292, +2.348796, -14.100330, +3.754417 
1488854786.251388, 1488854786.251388, -1.072632, +0.137695, -0.341553, +2.348796, -14.100330, +3.754417 
1488854786.255190, 1488854786.255190, -1.072632, +0.137695, -0.341553, +2.348796, -14.100330, +3.754417 
1488854786.258942, 1488854786.258942, -1.072632, +0.137695, -0.341553, +3.981486, -13.367908, +4.776756 
1488854786.262697, 1488854786.262697, -1.072632, +0.137695, -0.341553, +3.981486, -13.367908, +4.776756 
1488854786.266493, 1488854786.266493, -1.072632, +0.137695, -0.341553, +3.981486, -13.367908, +5.265038 
1488854786.270245, 1488854786.270245, -1.087646, +0.161987, -0.380005, +5.766765, -14.344471, +5.265038 
1488854786.274190, 1488854786.274190, -1.087646, +0.161987, -0.380005, +5.766765, -14.344471, +5.265038 
1488854786.278136, 1488854786.278136, -1.087646, +0.161987, -0.380005, +7.048503, -14.252918, +5.417625 
1488854786.282080, 1488854786.282080, -1.087646, +0.161987, -0.380005, +7.048503, -14.252918, +5.417625 
1488854786.286033, 1488854786.286033, -1.087646, +0.161987, -0.380005, +7.048503, -14.252918, +5.417625 
1488854786.289983, 1488854786.289983, -1.108154, +0.165527, -0.244263, +4.881755, -14.878529, +5.448143 
1488854786.293903, 1488854786.293903, -1.108154, +0.165527, -0.244263, +4.881755, -14.878529, +5.448143 
1488854786.297657, 1488854786.297657, -1.108154, +0.165527, -0.244263, +4.881755, -14.878529, +5.448143 
1488854786.301403, 1488854786.301403, -1.108154, +0.165527, -0.244263, +2.715007, -15.763538, +5.631248 
1488854786.305316, 1488854786.305316, -1.108154, +0.165527, -0.244263, +2.715007, -15.763538, +5.631248 
1488854786.309254, 1488854786.309254, -1.085693, +0.181763, -0.325439, +2.715007, -15.763538, +5.631248 
1488854786.313262, 1488854786.313262, -1.085693, +0.181763, -0.325439, +4.393474, -15.015858, +5.661766 
1488854786.317204, 1488854786.317204, -1.085693, +0.181763, -0.325439, +4.393474, -15.015858, +5.661766 
1488854786.321148, 1488854786.321148, -1.085693, +0.181763, -0.325439, +4.393474, -18.922108, +5.768578 
1488854786.325104, 1488854786.325104, -1.085693, +0.181763, -0.325439, +4.683391, -15.244740, +5.768578 
1488854786.329138, 1488854786.329138, -1.131104, +0.171875, -0.270264, +4.683391, -15.244740, +5.768578 
1488854786.333657, 1488854786.333657, -1.131104, +0.171875, -0.270264, +3.325358, -15.610950, +5.142967 
1488854786.337600, 1488854786.337600, -1.131104, +0.171875, -0.270264, +3.325358, -15.610950, +5.142967 
1488854786.341553, 1488854786.341553, -1.131104, +0.171875, -0.270264, +3.325358, -15.610950, +5.142967 
1488854786.345384, 1488854786.345384, -1.131104, +0.171875, -0.270264, +2.364055, -16.145008, +4.914085 
1488854786.349126, 1488854786.349126, -1.046997, +0.125366, -0.323608, +2.364055, -16.145008, +4.914085 
1488854786.353013, 1488854786.353013, -1.046997, +0.125366, -0.323608, +2.364055, -16.145008, +4.914085 
1488854786.356957, 1488854786.356957, -1.046997, +0.125366, -0.323608, +2.303020, -15.946644, +4.669945 
1488854786.360897, 1488854786.360897, -1.046997, +0.125366, -0.323608, +2.303020, -15.946644, +4.669945 
1488854786.364789, 1488854786.364789, -1.046997, +0.125366, -0.323608, +2.303020, -15.946644, +5.585472 
1488854786.368538, 1488854786.368538, -1.066284, +0.203857, -0.297241, +2.837077, -16.389149, +5.585472 
1488854786.372285, 1488854786.372285, -1.066284, +0.203857, -0.297241, +2.837077, -16.389149, +5.585472 
1488854786.376050, 1488854786.376050, -1.066284, +0.203857, -0.297241, +6.743327, -17.258900, +6.623070 
1488854786.379802, 1488854786.379802, -1.066284, +0.203857, -0.297241, +3.493205, -17.258900, +6.623070 
1488854786.383643, 1488854786.383643, -1.066284, +0.203857, -0.297241, +3.493205, -17.258900, +6.623070 
1488854786.387404, 1488854786.387404, -1.066284, +0.235107, -0.278687, +2.409831, -18.815296, +6.623070 
1488854786.391150, 1488854786.391150, -1.088379, +0.224487, -0.278687, +2.409831, -18.815296, +6.623070 
1488854786.395079, 1488854786.395079, -1.088379, +0.224487, -0.278687, +2.409831, -18.815296, +6.623070 
1488854786.398989, 1488854786.398989, -1.088379, +0.224487, -0.278687, +1.128093, -20.280140, +6.500999 
1488854786.402907, 1488854786.402907, -1.088379, +0.224487, -0.278687, +1.128093, -20.280140, +6.500999 
1488854786.406856, 1488854786.406856, -1.088379, +0.224487, -0.309937, +1.128093, -20.280140, +6.500999 
1488854786.410771, 1488854786.410771, -1.062622, +0.204468, -0.289185, -0.168904, -20.341175, +5.692284 
1488854786.414698, 1488854786.414698, -1.062622, +0.204468, -0.289185, -0.168904, -20.341175, +5.692284 
1488854786.418618, 1488854786.418618, -1.062622, +0.204468, -0.289185, -0.168904, -20.341175, +1.786033 
1488854786.422529, 1488854786.422529, -1.062622, +0.204468, -0.289185, -0.733479, -20.463245, +4.792015 
1488854786.426386, 1488854786.426386, -1.062622, +0.204468, -0.289185, -0.733479, -20.463245, +4.792015 
1488854786.430139, 1488854786.430139, -1.081299, +0.182007, -0.284058, -0.733479, -20.463245, +4.593651 
1488854786.433987, 1488854786.433987, -1.081299, +0.182007, -0.284058, -0.199422, -20.264881, +4.593651 
1488854786.437732, 1488854786.437732, -1.081299, +0.182007, -0.284058, -0.199422, -20.264881, +4.593651 
1488854786.441488, 1488854786.441488, -1.081299, +0.182007, -0.284058, -0.199422, -20.661610, +4.410545 
1488854786.445473, 1488854786.445473, -1.081299, +0.182007, -0.284058, -0.702962, -20.661610, +4.410545 
1488854786.449638, 1488854786.449638, -1.089844, +0.208130, -0.235107, -0.702962, -20.661610, +4.410545 
1488854786.453981, 1488854786.453981, -1.089844, +0.208130, -0.235107, -1.877889, -23.438709, +4.517357 
1488854786.457928, 1488854786.457928, -1.089844, +0.208130, -0.235107, -1.877889, -23.438709, +4.517357 
1488854786.461876, 1488854786.461876, -1.089844, +0.208130, -0.235107, -1.877889, -23.438709, +4.517357 
1488854786.465822, 1488854786.465822, -1.089844, +0.208130, -0.235107, -2.411946, -24.384754, +3.815452 
1488854786.469767, 1488854786.469767, -1.080444, +0.205811, -0.320923, -2.411946, -24.384754, +3.815452 
1488854786.473710, 1488854786.473710, -1.080444, +0.205811, -0.320923, -2.411946, -24.384754, +4.715721 
1488854786.477662, 1488854786.477662, -1.080444, +0.205811, -0.320923, -2.106771, -23.133533, +4.715721 
1488854786.481596, 1488854786.481596, -1.080444, +0.205811, -0.320923, -2.106771, -23.133533, +4.715721 
1488854786.485429, 1488854786.485429, -1.080444, +0.205811, -0.320923, -1.114949, -21.744984, +4.761497 
1488854786.489181, 1488854786.489181, -1.116333, +0.244019, -0.258179, -1.114949, -21.744984, +4.761497 
1488854786.492923, 1488854786.492923, -1.116333, +0.244019, -0.258179, -1.114949, -21.744984, +4.761497 
1488854786.496723, 1488854786.496723, -1.116333, +0.244019, -0.258179, -2.183064, -21.348255, +3.433983 
1488854786.500467, 1488854786.500467, -1.116333, +0.244019, -0.258179, -2.183064, -21.348255, +3.433983 
1488854786.505062, 1488854786.505062, -1.116333, +0.244019, -0.258179, -2.183064, -21.348255, +3.433983 
1488854786.508803, 1488854786.508803, -1.099121, +0.217163, -0.272095, -3.968343, -21.516102, +2.152244 
1488854786.512547, 1488854786.512547, -1.099121, +0.217163, -0.272095, -3.968343, -21.516102, +2.152244 
1488854786.516352, 1488854786.516352, -1.099121, +0.217163, -0.272095, -3.968343, -21.516102, +2.152244 
1488854786.520086, 1488854786.520086, -1.099121, +0.217163, -0.272095, -4.624471, -21.348255, +1.755516 
1488854786.523867, 1488854786.523867, -1.099121, +0.217163, -0.272095, -4.624471, -21.348255, +1.755516 
1488854786.527608, 1488854786.527608, -1.086304, +0.196289, -0.246216, -4.624471, -21.348255, +1.755516 
1488854786.531350, 1488854786.531350, -1.086304, +0.196289, -0.246216, -4.670247, -22.126453, +1.511375 
1488854786.535099, 1488854786.535099, -1.086304, +0.196289, -0.246216, -4.670247, -22.126453, +1.511375 
1488854786.538836, 1488854786.538836, -1.086304, +0.196289, -0.246216, -4.670247, -22.126453, +1.618187 
1488854786.542576, 1488854786.542576, -1.086304, +0.196289, -0.246216, -4.304036, -22.279041, +1.618187 
1488854786.546492, 1488854786.546492, -1.086304, +0.263428, -0.267700, -4.304036, -22.279041, +1.618187 
1488854786.550242, 1488854786.550242, -1.094971, +0.263428, -0.267700, -4.304036, -23.515003, +2.091209 
1488854786.554196, 1488854786.554196, -1.094971, +0.263428, -0.267700, -2.976521, -23.515003, +2.091209 
1488854786.558140, 1488854786.558140, -1.094971, +0.263428, -0.267700, -2.976521, -23.515003, +2.091209 
1488854786.562078, 1488854786.562078, -1.094971, +0.263428, -0.267700, -4.197225, -25.407093, +1.786033 
1488854786.566024, 1488854786.566024, -1.094971, +0.263428, -0.299194, -4.197225, -25.407093, +1.786033 
1488854786.569964, 1488854786.569964, -1.106323, +0.218872, -0.299194, -4.197225, -25.407093, +1.786033 
1488854786.573913, 1488854786.573913, -1.106323, +0.218872, -0.299194, -6.989583, -27.177113, +1.740257 
1488854786.577849, 1488854786.577849, -1.106323, +0.218872, -0.299194, -6.989583, -27.177113, +1.740257 
1488854786.581781, 1488854786.581781, -1.106323, +0.218872, -0.299194, -6.989583, -27.177113, +1.740257 
1488854786.585600, 1488854786.585600, -1.106323, +0.218872, -0.267944, -7.737264, -27.009266, +1.999656 
1488854786.589345, 1488854786.589345, -1.123535, +0.246460, -0.272827, -7.737264, -27.009266, +1.999656 
1488854786.593093, 1488854786.593093, -1.123535, +0.246460, -0.272827, -7.737264, -27.009266, +1.999656 
1488854786.597027, 1488854786.597027, -1.123535, +0.246460, -0.272827, -7.187947, -27.375477, +2.655784 
1488854786.600959, 1488854786.600959, -1.123535, +0.246460, -0.272827, -7.187947, -27.375477, +2.655784 
1488854786.604910, 1488854786.604910, -1.123535, +0.246460, -0.272827, -8.668050, -27.695911, +2.594749 
1488854786.608853, 1488854786.608853, -1.121582, +0.256958, -0.213501, -8.668050, -27.695911, +2.594749 
1488854786.613286, 1488854786.613286, -1.121582, +0.256958, -0.213501, -8.668050, -27.695911, +2.594749 
1488854786.617237, 1488854786.617237, -1.121582, +0.256958, -0.213501, -8.866414, -28.016346, +2.152244 
1488854786.621178, 1488854786.621178, -1.121582, +0.256958, -0.213501, -8.866414, -28.016346, +2.152244 
1488854786.625033, 1488854786.625033, -1.121582, +0.256958, -0.213501, -8.866414, -28.016346, +2.152244 
1488854786.628779, 1488854786.628779, -1.131348, +0.236328, -0.239624, -8.530721, -28.611439, +1.831810 
1488854786.632522, 1488854786.632522, -1.131348, +0.236328, -0.239624, -8.530721, -28.611439, +1.831810 
1488854786.636493, 1488854786.636493, -1.131348, +0.236328, -0.239624, -8.530721, -28.611439, +1.831810 
1488854786.640435, 1488854786.640435, -1.131348, +0.236328, -0.239624, -8.149251, -28.992908, +2.198021 
1488854786.644330, 1488854786.644330, -1.131348, +0.236328, -0.239624, -8.149251, -28.992908, +2.198021 
1488854786.648079, 1488854786.648079, -1.120483, +0.244629, -0.256348, -8.149251, -28.992908, +2.472679 
1488854786.651823, 1488854786.651823, -1.120483, +0.244629, -0.256348, -8.866414, -29.694813, +2.472679 
1488854786.655720, 1488854786.655720, -1.120483, +0.244629, -0.256348, -8.866414, -29.694813, +2.472679 
1488854786.659466, 1488854786.659466, -1.120483, +0.244629, -0.256348, -10.926351, -30.350941, +1.541893 
1488854786.663385, 1488854786.663385, -1.120483, +0.244629, -0.256348, -10.926351, -30.350941, +1.541893 
1488854786.667143, 1488854786.667143, -1.063477, +0.202026, -0.277710, -10.926351, -30.350941, +1.541893 
1488854786.670894, 1488854786.670894, -1.063477, +0.202026, -0.277710, -13.245687, -32.014149, +1.541893 
1488854786.674751, 1488854786.674751, -1.063477, +0.202026, -0.277710, -13.245687, -32.014149, +1.541893 
1488854786.678500, 1488854786.678500, -1.063477, +0.202026, -0.277710, -13.245687, -32.014149, +1.541893 
1488854786.682250, 1488854786.682250, -1.063477, +0.202026, -0.277710, -11.750325, -33.326405, +2.777855 
1488854786.686165, 1488854786.686165, -1.155273, +0.233765, -0.199829, -11.750325, -33.326405, +2.777855 
1488854786.690104, 1488854786.690104, -1.155273, +0.233765, -0.199829, -11.750325, -33.326405, +2.777855 
1488854786.694089, 1488854786.694089, -1.155273, +0.233765, -0.199829, -11.078938, -35.477894, +4.318993 
