Calculating the offsets...
timestamp_before, timestamp_after, accel_x, accel_y, accel_z, gyro_x, gyro_y, gyro_z
1488855201.695644, 1488855201.695644, -1.025513, +0.293701, -0.344971, +3.170504, -39.508480, +14.791506 
1488855201.708605, 1488855201.708605, -1.103638, +0.232178, -0.344971, +3.170504, -39.508480, +14.791506 
1488855201.712367, 1488855201.712367, -1.103638, +0.232178, -0.344971, +3.170504, -39.508480, +6.979006 
1488855201.716343, 1488855201.716343, -1.103638, +0.232178, -0.344971, +1.308932, -37.448544, +7.390994 
1488855201.720288, 1488855201.720288, -1.103638, +0.232178, -0.344971, +1.308932, -37.448544, +7.390994 
1488855201.724280, 1488855201.724280, -1.072388, -0.009766, -0.440308, -4.031644, -35.953182, +5.407351 
1488855201.728223, 1488855201.728223, -1.062622, -0.009766, -0.440308, -4.031644, -35.953182, +5.407351 
1488855201.732167, 1488855201.732167, -1.062622, -0.009766, -0.440308, -4.031644, -35.953182, +5.407351 
1488855201.735965, 1488855201.735965, -1.062622, -0.009766, -0.440308, -1.086698, -28.110163, +8.016603 
1488855201.739718, 1488855201.739718, -1.062622, -0.009766, -0.440308, -1.086698, -28.110163, +8.016603 
1488855201.743628, 1488855201.743628, -1.062622, +0.052734, -0.399536, -1.086698, -28.110163, +8.016603 
1488855201.747379, 1488855201.747379, -1.194458, +0.059082, -0.399536, +2.636446, -25.577204, +13.052004 
1488855201.751128, 1488855201.751128, -1.194458, +0.059082, -0.399536, +2.636446, -25.577204, +13.052004 
1488855201.755817, 1488855201.755817, -1.194458, +0.059082, -0.399536, +2.636446, -29.483454, +12.563723 
1488855201.761299, 1488855201.761299, -1.194458, +0.059082, -0.399536, -0.827299, -29.224054, +12.563723 
1488855201.765603, 1488855201.765603, -1.051880, +0.041138, -0.490723, -0.827299, -29.224054, +12.563723 
1488855201.769562, 1488855201.769562, -1.051880, +0.041138, -0.490723, -4.855619, -36.502499, +14.089602 
1488855201.773508, 1488855201.773508, -1.051880, +0.041138, -0.490723, -4.855619, -36.502499, +14.089602 
1488855201.777457, 1488855201.777457, -1.051880, +0.041138, -0.490723, -4.855619, -36.502499, +14.089602 
1488855201.781400, 1488855201.781400, -1.051880, +0.041138, -0.490723, -5.923734, -41.232723, +16.775148 
1488855201.785355, 1488855201.785355, -0.968140, +0.190430, -0.553101, -5.923734, -41.232723, +16.775148 
1488855201.789300, 1488855201.789300, -0.968140, +0.190430, -0.553101, -5.923734, -47.839779, +20.452517 
1488855201.793296, 1488855201.793296, -0.968140, +0.190430, -0.553101, -12.103544, -47.839779, +20.452517 
1488855201.797252, 1488855201.797252, -0.968140, +0.190430, -0.553101, -12.103544, -47.839779, +20.452517 
1488855201.801201, 1488855201.801201, -0.968140, +0.190430, -0.553101, -21.991240, -57.223934, +22.756594 
1488855201.805167, 1488855201.805167, -0.992554, +0.133179, -0.386230, -21.991240, -57.223934, +22.756594 
1488855201.809197, 1488855201.809197, -0.992554, +0.133179, -0.386230, -21.991240, -57.223934, +22.756594 
1488855201.813155, 1488855201.813155, -0.992554, +0.133179, -0.386230, -30.536161, -65.234795, +25.167482 
1488855201.817099, 1488855201.817099, -0.992554, +0.133179, -0.386230, -30.536161, -65.234795, +25.167482 
1488855201.821199, 1488855201.821199, -0.992554, +0.133179, -0.386230, -30.536161, -65.234795, +25.167482 
1488855201.825490, 1488855201.825490, -1.080933, +0.101074, -0.297607, -32.199368, -67.004814, +28.951662 
1488855201.829447, 1488855201.829447, -1.080933, +0.101074, -0.297607, -32.199368, -67.004814, +28.951662 
1488855201.833410, 1488855201.833410, -1.080933, +0.101074, -0.297607, -26.309477, -68.011894, +32.644291 
1488855201.837362, 1488855201.837362, -1.080933, +0.101074, -0.297607, -26.309477, -68.011894, +32.644291 
1488855201.841305, 1488855201.841305, -1.080933, +0.101074, -0.297607, -26.309477, -68.011894, +32.644291 
1488855201.845194, 1488855201.845194, -1.208008, +0.250244, -0.223633, -23.669706, -66.180840, +33.178349 
1488855201.848942, 1488855201.848942, -1.208008, +0.250244, -0.223633, -23.669706, -66.180840, +33.178349 
1488855201.852694, 1488855201.852694, -1.208008, +0.250244, -0.223633, -23.669706, -66.180840, +33.178349 
1488855201.856816, 1488855201.856816, -1.208008, +0.250244, -0.223633, -26.187407, -62.915462, +30.691164 
1488855201.860769, 1488855201.860769, -1.208008, +0.250244, -0.223633, -26.187407, -62.915462, +30.691164 
1488855201.864648, 1488855201.864648, -1.176025, +0.228638, -0.133789, -26.187407, -62.915462, +30.691164 
1488855201.868407, 1488855201.868407, -1.176025, +0.228638, -0.133789, -31.512724, -61.587948, +27.105349 
1488855201.872166, 1488855201.872166, -1.176025, +0.228638, -0.133789, -31.512724, -61.587948, +27.105349 
1488855201.876097, 1488855201.876097, -1.176025, +0.228638, -0.133789, -31.512724, -61.587948, +24.694460 
1488855201.879854, 1488855201.879854, -1.176025, +0.228638, -0.133789, -35.724148, -61.893124, +24.694460 
1488855201.883790, 1488855201.883790, -1.097900, +0.090210, -0.156860, -35.724148, -61.893124, +24.694460 
1488855201.887742, 1488855201.887742, -1.097900, +0.090210, -0.156860, -34.060940, -61.984676, +24.694460 
1488855201.891687, 1488855201.891687, -1.097900, +0.090210, -0.156860, -34.060940, -61.984676, +24.694460 
1488855201.895549, 1488855201.895549, -1.097900, +0.090210, -0.156860, -34.060940, -61.984676, +24.694460 
1488855201.899293, 1488855201.899293, -1.097900, +0.090210, -0.156860, -28.399931, -61.710018, +26.708620 
1488855201.903044, 1488855201.903044, -1.066650, +0.115601, -0.172607, -28.399931, -61.710018, +26.708620 
1488855201.906996, 1488855201.906996, -1.074097, +0.115601, -0.172607, -28.399931, -61.710018, +26.708620 
1488855201.910941, 1488855201.910941, -1.074097, +0.115601, -0.172607, -18.542753, -61.618465, +30.553835 
1488855201.914900, 1488855201.914900, -1.074097, +0.115601, -0.172607, -18.542753, -61.618465, +30.553835 
1488855201.918848, 1488855201.918848, -1.074097, +0.115601, -0.172607, -18.542753, -61.618465, +30.553835 
1488855201.922601, 1488855201.922601, -1.074097, +0.158203, -0.164185, -11.355864, -62.366146, +32.140751 
1488855201.926645, 1488855201.926645, -1.182373, +0.158203, -0.164185, -11.355864, -62.366146, +32.140751 
1488855201.931097, 1488855201.931097, -1.182373, +0.158203, -0.164185, -7.449613, -63.098568, +30.904787 
1488855201.934874, 1488855201.934874, -1.182373, +0.158203, -0.164185, -6.701932, -63.098568, +30.904787 
1488855201.938616, 1488855201.938616, -1.182373, +0.158203, -0.164185, -6.701932, -63.098568, +30.904787 
1488855201.942359, 1488855201.942359, -1.182373, +0.255859, -0.170654, -8.594023, -64.639702, +30.218142 
1488855201.946167, 1488855201.946167, -1.276733, +0.255859, -0.170654, -8.594023, -64.639702, +30.218142 
1488855201.949915, 1488855201.949915, -1.276733, +0.255859, -0.170654, -8.594023, -64.639702, +30.218142 
1488855201.953696, 1488855201.953696, -1.276733, +0.255859, -0.170654, -13.385283, -66.287651, +28.539675 
1488855201.957438, 1488855201.957438, -1.276733, +0.255859, -0.170654, -13.385283, -66.287651, +28.539675 
1488855201.961181, 1488855201.961181, -1.276733, +0.255859, -0.170654, -13.385283, -66.287651, +28.539675 
1488855201.964973, 1488855201.964973, -1.371704, +0.245239, -0.174194, -16.025053, -69.339409, +28.387087 
1488855201.968721, 1488855201.968721, -1.371704, +0.245239, -0.174194, -16.025053, -69.339409, +28.387087 
1488855201.972470, 1488855201.972470, -1.371704, +0.245239, -0.174194, -16.025053, -69.339409, +28.387087 
1488855201.976304, 1488855201.976304, -1.371704, +0.245239, -0.174194, -17.367826, -75.778618, +31.026857 
1488855201.980058, 1488855201.980058, -1.371704, +0.245239, -0.174194, -17.367826, -75.778618, +31.026857 
1488855201.983961, 1488855201.983961, -1.367676, +0.070312, -0.391724, -17.367826, -75.778618, +31.026857 
1488855201.987713, 1488855201.987713, -1.367676, +0.070312, -0.391724, -17.550932, -82.889214, +32.751102 
1488855201.991468, 1488855201.991468, -1.367676, +0.070312, -0.391724, -17.550932, -82.889214, +32.751102 
1488855201.995338, 1488855201.995338, -1.367676, +0.070312, -0.391724, -17.550932, -82.889214, +32.751102 
1488855201.999279, 1488855201.999279, -1.367676, +0.070312, -0.391724, -14.758574, -91.342583, +38.000126 
1488855202.003380, 1488855202.003380, -1.457275, +0.187744, -0.377686, -14.758574, -91.342583, +38.000126 
1488855202.007331, 1488855202.007331, -1.457275, +0.187744, -0.377686, -14.758574, -100.619926, +42.898197 
1488855202.011281, 1488855202.011281, -1.457275, +0.187744, -0.377686, -14.636503, -100.619926, +42.898197 
1488855202.015239, 1488855202.015239, -1.457275, +0.187744, -0.377686, -14.636503, -100.619926, +42.898197 
1488855202.019184, 1488855202.019184, -1.457275, +0.187744, -0.377686, -14.575468, -108.493462, +47.765751 
1488855202.023132, 1488855202.023132, -1.568726, +0.165283, -0.378540, -14.575468, -108.493462, +47.765751 
1488855202.027087, 1488855202.027087, -1.568726, +0.165283, -0.378540, -14.575468, -108.493462, +47.765751 
1488855202.031034, 1488855202.031034, -1.568726, +0.165283, -0.378540, -21.274076, -117.404594, +52.663822 
1488855202.034912, 1488855202.034912, -1.568726, +0.165283, -0.378540, -21.274076, -117.404594, +52.663822 
1488855202.038660, 1488855202.038660, -1.568726, +0.165283, -0.378540, -21.274076, -117.404594, +52.663822 
1488855202.042568, 1488855202.042568, -1.689941, -0.068970, -0.238281, -27.286039, -127.032890, +54.784794 
1488855202.046538, 1488855202.046538, -1.689941, -0.068970, -0.238281, -27.286039, -127.032890, +54.784794 
1488855202.050492, 1488855202.050492, -1.689941, -0.068970, -0.238281, -27.286039, -127.032890, +56.844730 
1488855202.054484, 1488855202.054484, -1.689941, -0.068970, -0.238281, -28.155790, -136.890076, +56.844730 
1488855202.058434, 1488855202.058434, -1.689941, -0.068970, -0.238281, -28.155790, -136.890076, +56.844730 
1488855202.062377, 1488855202.062377, -1.707397, +0.038330, -0.363159, -28.491484, -145.175598, +59.499760 
1488855202.066343, 1488855202.066343, -1.707397, +0.038330, -0.363159, -28.491484, -145.175598, +59.499760 
1488855202.070296, 1488855202.070296, -1.707397, +0.038330, -0.363159, -28.491484, -145.175598, +59.499760 
1488855202.074238, 1488855202.074238, -1.707397, +0.038330, -0.363159, -35.556301, -152.545593, +63.116093 
1488855202.077999, 1488855202.077999, -1.707397, +0.038330, -0.363159, -35.556301, -152.545593, +63.116093 
1488855202.081747, 1488855202.081747, -1.832397, +0.192627, -0.608643, -35.556301, -152.545593, +63.116093 
1488855202.085533, 1488855202.085533, -1.822632, +0.192627, -0.608643, -54.172024, -158.069275, +62.307377 
1488855202.089286, 1488855202.089286, -1.822632, +0.192627, -0.608643, -54.172024, -158.069275, +62.307377 
1488855202.093124, 1488855202.093124, -1.822632, +0.192627, -0.608643, -54.172024, -158.069275, +62.307377 
1488855202.097071, 1488855202.097071, -1.822632, +0.192627, -0.608643, -73.443878, -165.683411, +64.138428 
1488855202.101031, 1488855202.101031, -1.822632, +0.255127, -1.133423, -73.443878, -165.683411, +64.138428 
1488855202.104994, 1488855202.104994, -2.134033, +0.267822, -1.133423, -73.443878, -173.495911, +65.862671 
1488855202.108944, 1488855202.108944, -2.134033, +0.267822, -1.133423, -99.734772, -174.365662, +65.862671 
1488855202.112900, 1488855202.112900, -2.134033, +0.267822, -1.133423, -99.734772, -174.365662, +65.862671 
1488855202.116841, 1488855202.116841, -2.134033, +0.267822, -1.133423, -129.443634, -176.196716, +64.519897 
1488855202.120796, 1488855202.120796, -2.134033, +0.267822, -1.496582, -129.443634, -176.196716, +64.519897 
1488855202.124678, 1488855202.124678, -1.864502, -0.065796, -1.496582, -129.443634, -176.196716, +64.519897 
1488855202.128568, 1488855202.128568, -1.864502, -0.065796, -1.496582, -151.858795, -173.526428, +60.506840 
1488855202.132318, 1488855202.132318, -1.864502, -0.065796, -1.496582, -151.858795, -173.526428, +60.506840 
1488855202.136163, 1488855202.136163, -1.864502, -0.065796, -1.496582, -151.858795, -173.526428, +60.506840 
1488855202.140031, 1488855202.140031, -1.864502, -0.065796, -1.496582, -165.133942, -174.014709, +53.045292 
1488855202.143975, 1488855202.143975, -2.362427, -0.516357, -0.667114, -165.133942, -174.014709, +53.045292 
1488855202.147727, 1488855202.147727, -2.362427, -0.516357, -0.667114, -165.133942, -174.014709, +53.045292 
1488855202.151576, 1488855202.151576, -2.362427, -0.516357, -0.667114, -173.755157, -188.205383, +45.843143 
1488855202.155379, 1488855202.155379, -2.362427, -0.516357, -0.667114, -173.755157, -188.205383, +45.843143 
1488855202.159118, 1488855202.159118, -2.362427, -0.516357, -0.667114, -173.755157, -188.205383, +65.374390 
1488855202.162864, 1488855202.162864, -2.230103, -0.045776, -0.911987, -155.734528, -198.276184, +62.932987 
1488855202.166621, 1488855202.166621, -2.230103, -0.045776, -0.911987, -155.734528, -198.276184, +62.932987 
1488855202.170369, 1488855202.170369, -2.230103, -0.045776, -0.911987, -155.734528, -198.276184, +79.290405 
1488855202.174118, 1488855202.174118, -2.230103, -0.045776, -0.911987, -122.638214, -186.572693, +79.290405 
1488855202.177862, 1488855202.177862, -2.230103, -0.045776, -0.911987, -122.638214, -186.572693, +79.290405 
1488855202.181616, 1488855202.181616, -1.710449, +0.377808, -0.726807, -126.544464, -168.002747, +82.738892 
1488855202.185426, 1488855202.185426, -1.710449, +0.377808, -0.726807, -124.164093, -168.002747, +82.738892 
1488855202.189183, 1488855202.189183, -1.710449, +0.377808, -0.726807, -124.164093, -168.002747, +82.738892 
1488855202.192938, 1488855202.192938, -1.710449, +0.377808, -0.726807, -136.828888, -148.822449, +68.090454 
1488855202.196868, 1488855202.196868, -1.710449, +0.377808, -0.726807, -136.828888, -148.822449, +68.090454 
1488855202.200620, 1488855202.200620, -1.710449, +0.373169, -0.209839, -136.828888, -148.822449, +68.090454 
1488855202.204603, 1488855202.204603, -1.344116, +0.373169, -0.209839, -78.509796, -141.559265, +63.421268 
1488855202.208545, 1488855202.208545, -1.344116, +0.373169, -0.209839, -78.509796, -141.559265, +63.421268 
1488855202.212490, 1488855202.212490, -1.344116, +0.373169, -0.209839, -78.509796, -141.559265, +63.421268 
1488855202.216445, 1488855202.216445, -1.344116, +0.373169, -0.209839, +8.999361, -123.462334, +57.394047 
1488855202.220394, 1488855202.220394, -1.344116, +0.134155, +0.501953, +8.999361, -123.462334, +57.394047 
1488855202.224294, 1488855202.224294, -0.982910, +0.134155, +0.501953, +8.999361, -123.462334, +57.394047 
1488855202.228043, 1488855202.228043, -0.982910, +0.134155, +0.501953, +28.194918, -109.866753, +30.935305 
1488855202.231794, 1488855202.231794, -0.982910, +0.134155, +0.501953, +28.194918, -109.866753, +30.935305 
1488855202.235720, 1488855202.235720, -0.982910, +0.134155, +0.501953, +28.194918, -129.398010, +16.881960 
1488855202.239669, 1488855202.239669, -0.982910, +0.134155, +1.001953, +38.342014, -130.481384, +16.881960 
1488855202.243665, 1488855202.243665, -0.456421, +0.005615, +1.010986, +38.342014, -130.481384, +16.881960 
1488855202.247614, 1488855202.247614, -0.456421, +0.005615, +1.010986, +90.816986, -117.419853, +0.158328 
1488855202.251565, 1488855202.251565, -0.456421, +0.005615, +1.010986, +90.816986, -117.419853, +0.158328 
1488855202.255529, 1488855202.255529, -0.456421, +0.005615, +1.010986, +90.816986, -117.419853, +0.158328 
1488855202.259720, 1488855202.259720, -0.456421, +0.005615, +0.579224, +114.910614, -65.982475, -17.709715 
1488855202.264090, 1488855202.264090, +0.192017, +0.648315, +0.579224, +114.910614, -65.982475, -17.709715 
1488855202.268043, 1488855202.268043, +0.192017, +0.648315, +0.579224, +114.910614, -65.982475, -17.709715 
1488855202.271993, 1488855202.271993, +0.192017, +0.648315, +0.579224, +113.262665, -19.611017, -18.915159 
1488855202.275811, 1488855202.275811, +0.192017, +0.648315, +0.579224, +113.262665, -19.611017, -18.915159 
1488855202.279559, 1488855202.279559, +0.192017, +0.648315, +0.153809, +113.262665, +19.451483, -26.681883 
1488855202.283322, 1488855202.283322, +0.154419, +0.623779, +0.153809, +96.325409, +18.108709, -26.681883 
1488855202.287263, 1488855202.287263, +0.154419, +0.623779, +0.153809, +96.325409, +18.108709, -26.681883 
1488855202.291216, 1488855202.291216, +0.154419, +0.623779, +0.153809, +79.449188, +50.213200, -38.476925 
1488855202.295813, 1488855202.295813, +0.154419, +0.623779, +0.153809, +79.449188, +50.213200, -38.476925 
1488855202.299680, 1488855202.299680, +0.154419, +0.342529, -0.223633, +79.449188, +50.213200, -38.476925 
1488855202.303480, 1488855202.303480, +0.286499, +0.339355, -0.223633, +69.195282, +80.974922, -49.463253 
1488855202.307226, 1488855202.307226, +0.286499, +0.339355, -0.223633, +69.195282, +80.974922, -49.463253 
1488855202.310976, 1488855202.310976, +0.286499, +0.339355, -0.223633, +69.195282, +80.974922, -49.463253 
1488855202.314792, 1488855202.314792, +0.286499, +0.339355, -0.223633, +62.191502, +105.373726, -61.212521 
1488855202.318534, 1488855202.318534, +0.286499, +0.339355, -0.223633, +62.191502, +105.373726, -61.212521 
1488855202.322273, 1488855202.322273, +0.144165, +0.072998, -0.404663, +62.191502, +105.373726, -61.212521 
1488855202.326120, 1488855202.326120, +0.144165, +0.072998, -0.404663, +53.753391, +121.502266, -70.810303 
1488855202.329866, 1488855202.329866, +0.144165, +0.072998, -0.404663, +53.753391, +121.502266, -70.810303 
1488855202.333688, 1488855202.333688, +0.144165, +0.072998, -0.404663, +53.753391, +121.502266, -79.187378 
1488855202.337437, 1488855202.337437, +0.144165, +0.072998, -0.404663, +35.580173, +135.174133, -79.187378 
1488855202.341179, 1488855202.341179, +0.131836, +0.119873, -0.361328, +35.580173, +135.174133, -79.187378 
1488855202.344932, 1488855202.344932, +0.131836, +0.119873, -0.361328, +35.580173, +154.705383, -87.778076 
1488855202.348673, 1488855202.348673, +0.131836, +0.119873, -0.361328, +13.760103, +153.301575, -87.778076 
1488855202.352422, 1488855202.352422, +0.131836, +0.119873, -0.361328, +13.760103, +153.301575, -87.778076 
1488855202.356181, 1488855202.356181, +0.131836, +0.119873, -0.361328, -1.529203, +171.017029, -95.804199 
1488855202.359927, 1488855202.359927, -0.004150, +0.146606, -0.209351, -1.529203, +171.017029, -95.804199 
1488855202.363735, 1488855202.363735, -0.004150, +0.146606, -0.209351, -1.529203, +171.017029, -95.804199 
1488855202.367685, 1488855202.367685, -0.004150, +0.146606, -0.209351, -13.873564, +184.688904, -105.081543 
1488855202.371641, 1488855202.371641, -0.004150, +0.146606, -0.209351, -13.873564, +184.688904, -105.081543 
1488855202.375485, 1488855202.375485, -0.004150, +0.146606, -0.209351, -13.873564, +184.688904, -105.081543 
1488855202.379460, 1488855202.379460, -0.004150, +0.110962, -0.162842, -22.433744, +196.514465, -113.519653 
1488855202.383688, 1488855202.383688, -0.060425, +0.110962, -0.162842, -22.433744, +196.514465, -113.519653 
1488855202.387642, 1488855202.387642, -0.060425, +0.110962, -0.162842, -22.433744, +196.514465, -113.519653 
1488855202.391591, 1488855202.391591, -0.060425, +0.110962, -0.162842, -22.387968, +208.553650, -118.936523 
1488855202.395548, 1488855202.395548, -0.060425, +0.110962, -0.162842, -22.387968, +208.553650, -118.936523 
1488855202.399495, 1488855202.399495, -0.185425, -0.008179, -0.199463, -18.481718, +222.271301, -122.522339 
1488855202.403487, 1488855202.403487, -0.160522, -0.008179, -0.199463, -17.993437, +222.271301, -122.522339 
1488855202.407450, 1488855202.407450, -0.160522, -0.008179, -0.199463, -17.993437, +222.271301, -122.522339 
1488855202.411397, 1488855202.411397, -0.160522, -0.008179, -0.199463, -10.119902, +236.233093, -125.268921 
1488855202.415251, 1488855202.415251, -0.160522, -0.008179, -0.199463, -10.119902, +236.233093, -125.268921 
1488855202.419016, 1488855202.419016, -0.160522, -0.195679, -0.323608, -10.119902, +236.233093, -125.268921 
1488855202.422763, 1488855202.422763, -0.347412, -0.195801, -0.323608, +0.347628, +249.996521, -126.764282 
1488855202.426601, 1488855202.426601, -0.347412, -0.195801, -0.323608, +0.347628, +249.996521, -126.764282 
1488855202.430348, 1488855202.430348, -0.347412, -0.195801, -0.323608, +0.347628, +249.996521, -126.764282 
1488855202.434215, 1488855202.434215, -0.347412, -0.195801, -0.323608, +12.066378, +264.232971, -128.442749 
1488855202.437963, 1488855202.437963, -0.347412, -0.195801, -0.323608, +12.066378, +264.232971, -128.442749 
1488855202.441721, 1488855202.441721, -0.577759, -0.247559, -0.318848, +12.066378, +264.232971, -128.442749 
1488855202.445834, 1488855202.445834, -0.577759, -0.247559, -0.318848, +23.830904, +275.631287, -130.243286 
1488855202.449784, 1488855202.449784, -0.577759, -0.247559, -0.318848, +23.830904, +275.631287, -130.243286 
1488855202.453746, 1488855202.453746, -0.577759, -0.247559, -0.318848, +23.830904, +283.443787, -130.380615 
1488855202.457685, 1488855202.457685, -0.577759, -0.247559, -0.318848, +35.152927, +284.923889, -130.380615 
1488855202.461628, 1488855202.461628, -0.788208, -0.085693, -0.289551, +35.152927, +284.923889, -130.380615 
1488855202.465588, 1488855202.465588, -0.788208, -0.085693, -0.289551, +41.668430, +294.781067, -129.022583 
1488855202.469533, 1488855202.469533, -0.788208, -0.085693, -0.289551, +41.668430, +294.781067, -129.022583 
1488855202.473475, 1488855202.473475, -0.788208, -0.085693, -0.289551, +41.668430, +294.781067, -129.022583 
1488855202.477239, 1488855202.477239, -0.788208, -0.085693, -0.289551, +45.773045, +305.111267, -124.185547 
1488855202.480996, 1488855202.480996, -1.026489, +0.029785, -0.284302, +45.773045, +305.111267, -124.185547 
1488855202.484910, 1488855202.484910, -1.026489, +0.029785, -0.284302, +45.773045, +305.111267, -124.185547 
1488855202.488861, 1488855202.488861, -1.026489, +0.029785, -0.284302, +51.983372, +315.349915, -119.775757 
1488855202.492800, 1488855202.492800, -1.026489, +0.029785, -0.284302, +51.983372, +315.349915, -119.775757 
1488855202.496759, 1488855202.496759, -1.026489, +0.029785, -0.284302, +51.983372, +315.349915, -115.869507 
1488855202.500888, 1488855202.500888, -1.436890, +0.108276, -0.310913, +59.734837, +327.923157, -116.083130 
1488855202.505135, 1488855202.505135, -1.436890, +0.108276, -0.310913, +59.734837, +327.923157, -116.083130 
1488855202.509095, 1488855202.509095, -1.436890, +0.108276, -0.310913, +72.781097, +338.604309, -112.817749 
1488855202.513054, 1488855202.513054, -1.436890, +0.108276, -0.310913, +72.781097, +338.604309, -112.817749 
1488855202.517005, 1488855202.517005, -1.436890, +0.108276, -0.310913, +72.781097, +338.604309, -112.817749 
1488855202.520955, 1488855202.520955, -2.188965, +0.060547, -0.274170, +88.451874, +344.326355, -110.559448 
1488855202.524842, 1488855202.524842, -2.188965, +0.060547, -0.274170, +88.451874, +344.326355, -110.559448 
1488855202.528594, 1488855202.528594, -2.188965, +0.060547, -0.274170, +88.451874, +344.326355, -110.559448 
1488855202.532357, 1488855202.532357, -2.188965, +0.060547, -0.274170, +102.001678, +344.448425, -105.783447 
1488855202.536179, 1488855202.536179, -2.188965, +0.060547, -0.274170, +102.001678, +344.448425, -105.783447 
1488855202.539932, 1488855202.539932, -2.928345, +0.378418, -0.125488, +102.001678, +344.448425, -105.783447 
1488855202.543700, 1488855202.543700, -2.928345, +0.378418, -0.125488, +122.768890, +339.107849, -97.040161 
1488855202.547455, 1488855202.547455, -2.928345, +0.378418, -0.125488, +122.768890, +339.107849, -97.040161 
1488855202.551212, 1488855202.551212, -2.928345, +0.378418, -0.125488, +122.768890, +339.107849, -93.133911 
1488855202.555129, 1488855202.555129, -2.928345, +0.378418, -0.125488, +156.643402, +327.267029, -90.616211 
1488855202.558888, 1488855202.558888, -3.208618, +0.676270, +0.085693, +156.643402, +327.267029, -90.616211 
1488855202.562644, 1488855202.562644, -3.208618, +0.676270, +0.085693, +156.643402, +307.735779, -89.136108 
1488855202.566687, 1488855202.566687, -3.208618, +0.676270, +0.085693, +194.317352, +305.614807, -89.136108 
1488855202.570639, 1488855202.570639, -3.208618, +0.676270, +0.085693, +194.317352, +305.614807, -89.136108 
1488855202.574529, 1488855202.574529, -3.208618, +0.676270, +0.085693, +219.845306, +271.740295, -83.978638 
1488855202.578286, 1488855202.578286, -2.771118, +1.346191, +0.070557, +219.845306, +271.740295, -83.978638 
1488855202.582034, 1488855202.582034, -2.761475, +1.346191, +0.070557, +219.845306, +271.740295, -83.978638 
1488855202.585947, 1488855202.585947, -2.761475, +1.346191, +0.070557, +229.122650, +241.283752, -64.905151 
1488855202.589999, 1488855202.589999, -2.761475, +1.346191, +0.070557, +229.122650, +241.283752, -64.905151 
1488855202.593971, 1488855202.593971, -2.761475, +1.346191, +0.070557, +229.122650, +241.283752, -64.905151 
1488855202.597923, 1488855202.597923, -2.761475, +2.329956, +0.827393, +214.489471, +213.451721, -33.441525 
1488855202.601868, 1488855202.601868, -2.692993, +2.329956, +0.827393, +214.489471, +213.451721, -33.441525 
1488855202.605823, 1488855202.605823, -2.692993, +2.329956, +0.827393, +214.489471, +213.451721, -11.102659 
1488855202.609775, 1488855202.609775, -2.692993, +2.329956, +0.827393, +155.910980, +155.697205, -11.102659 
1488855202.613739, 1488855202.613739, -2.692993, +2.329956, +0.827393, +155.910980, +155.697205, -11.102659 
1488855202.617684, 1488855202.617684, -2.692993, +1.902832, +2.177734, +56.820408, +50.075871, +6.750124 
1488855202.621844, 1488855202.621844, -2.810425, +1.902832, +2.177734, +56.820408, +50.075871, +6.750124 
1488855202.626080, 1488855202.626080, -2.810425, +1.902832, +2.177734, +56.820408, +50.075871, +6.750124 
1488855202.629828, 1488855202.629828, -2.810425, +1.902832, +2.177734, -28.110014, -41.614193, +28.707521 
1488855202.633620, 1488855202.633620, -2.810425, +1.902832, +2.177734, -28.110014, -41.614193, +28.707521 
1488855202.637572, 1488855202.637572, -2.810425, +1.115479, +0.686646, -28.110014, -41.614193, +28.707521 
1488855202.641527, 1488855202.641527, -1.928223, +1.115479, +0.686646, -46.237453, -75.626030, +55.501957 
1488855202.645492, 1488855202.645492, -1.928223, +1.115479, +0.686646, -46.237453, -75.626030, +55.501957 
1488855202.649443, 1488855202.649443, -1.928223, +1.115479, +0.686646, -46.237453, -75.626030, +67.525879 
1488855202.653380, 1488855202.653380, -1.928223, +1.115479, +0.686646, -48.236355, -107.806816, +67.525879 
1488855202.657134, 1488855202.657134, -1.928223, +1.115479, -2.624268, -48.236355, -107.806816, +67.525879 
1488855202.660891, 1488855202.660891, -0.285767, -2.182129, -2.624268, -48.236355, -94.211235, +22.466677 
1488855202.664660, 1488855202.664660, -0.285767, -2.182129, -2.624268, -46.420559, -94.211235, +22.466677 
1488855202.668415, 1488855202.668415, -0.285767, -2.182129, -2.624268, -46.420559, -94.211235, +22.466677 
1488855202.672169, 1488855202.672169, -0.285767, -2.182129, -2.624268, -48.190578, -33.542294, -39.880733 
1488855202.676084, 1488855202.676084, -0.285767, -2.182129, -2.624268, -48.190578, -33.542294, -39.880733 
1488855202.679839, 1488855202.679839, -2.031494, -1.251953, -0.218628, -48.190578, -33.542294, -39.880733 
1488855202.683781, 1488855202.683781, -2.031494, -1.251953, -0.218628, -33.816799, -65.753593, -26.315672 
1488855202.687739, 1488855202.687739, -2.031494, -1.251953, -0.218628, -33.816799, -65.753593, -26.315672 
1488855202.691689, 1488855202.691689, -2.031494, -1.251953, -0.218628, -33.816799, -65.753593, -26.315672 
1488855202.695682, 1488855202.695682, -2.031494, -1.251953, -0.218628, -38.714870, -165.774963, -0.787717 
1488855202.699635, 1488855202.699635, -2.189331, +0.365234, +0.873901, -38.714870, -165.774963, -0.787717 
1488855202.703589, 1488855202.703589, -2.189331, +0.365234, +0.873901, -38.714870, -165.774963, -0.787717 
1488855202.707525, 1488855202.707525, -2.189331, +0.365234, +0.873901, -77.853668, -205.035828, +28.097170 
1488855202.711481, 1488855202.711481, -2.189331, +0.365234, +0.873901, -77.853668, -205.035828, +28.097170 
1488855202.715442, 1488855202.715442, -2.189331, +0.365234, +0.873901, -73.947418, -129.947327, +58.614750 
1488855202.719389, 1488855202.719389, -1.045166, -0.164917, -0.945190, -72.711456, -129.947327, +58.614750 
1488855202.723345, 1488855202.723345, -1.045166, -0.164917, -0.945190, -72.711456, -129.947327, +58.614750 
1488855202.727099, 1488855202.727099, -1.045166, -0.164917, -0.945190, -71.277130, -55.316586, +104.162231 
1488855202.730857, 1488855202.730857, -1.045166, -0.164917, -0.945190, -71.277130, -55.316586, +104.162231 
1488855202.734644, 1488855202.734644, -1.045166, -0.164917, -0.945190, -71.277130, -55.316586, +104.162231 
1488855202.738395, 1488855202.738395, -1.677979, +0.509644, -0.168335, -3.039823, -53.683895, +172.063843 
1488855202.742466, 1488855202.742466, -1.677979, +0.509644, -0.168335, -3.039823, -53.683895, +172.063843 
1488855202.746592, 1488855202.746592, -1.677979, +0.509644, -0.168335, -3.039823, -53.683895, +172.063843 
1488855202.750539, 1488855202.750539, -1.677979, +0.509644, -0.168335, +93.914520, -50.235409, +188.406006 
1488855202.754506, 1488855202.754506, -1.677979, +0.509644, -0.168335, +93.914520, -50.235409, +188.406006 
1488855202.758467, 1488855202.758467, -1.725098, -0.316406, +0.106323, +93.914520, -50.235409, +148.397461 
1488855202.762411, 1488855202.762411, -1.725098, -0.316406, +0.106323, +117.382538, -51.349300, +148.397461 
1488855202.766379, 1488855202.766379, -1.725098, -0.316406, +0.106323, +117.382538, -51.349300, +148.397461 
1488855202.770331, 1488855202.770331, -1.725098, -0.316406, +0.106323, +104.855072, -81.836357, +103.521362 
1488855202.774233, 1488855202.774233, -1.725098, -0.316406, +0.106323, +104.855072, -81.836357, +103.521362 
1488855202.777995, 1488855202.777995, -0.928223, +0.519287, -0.399536, +104.855072, -81.836357, +103.521362 
1488855202.781744, 1488855202.781744, -0.928223, +0.519287, -0.399536, +122.204315, -90.396538, +85.409180 
1488855202.785516, 1488855202.785516, -0.928223, +0.519287, -0.399536, +122.204315, -90.396538, +85.409180 
1488855202.789269, 1488855202.789269, -0.928223, +0.519287, -0.399536, +122.204315, -90.396538, +85.409180 
1488855202.793130, 1488855202.793130, -0.928223, +0.519287, -0.399536, +109.280121, -81.882133, +78.557983 
1488855202.796899, 1488855202.796899, -0.923706, +1.225098, -0.386230, +109.280121, -81.882133, +78.557983 
1488855202.800656, 1488855202.800656, -0.923706, +1.225098, -0.386230, +109.280121, -81.882133, +78.557983 
1488855202.804620, 1488855202.804620, -0.923706, +1.225098, -0.386230, +46.047703, -87.802544, +60.644169 
1488855202.808548, 1488855202.808548, -0.923706, +1.225098, -0.386230, +46.047703, -87.802544, +60.644169 
1488855202.812486, 1488855202.812486, -0.923706, +1.225098, -0.386230, +46.047703, -87.802544, +60.644169 
1488855202.816416, 1488855202.816416, -0.923706, +0.142700, -0.139038, -8.059965, -85.849419, +29.195803 
1488855202.820347, 1488855202.820347, -1.105591, +0.142700, -0.139038, -8.059965, -85.849419, +29.195803 
1488855202.824290, 1488855202.824290, -1.105591, +0.142700, -0.139038, -8.059965, -75.336113, +14.257448 
1488855202.828221, 1488855202.828221, -1.105591, +0.142700, -0.139038, -36.670193, -75.336113, +14.257448 
1488855202.832155, 1488855202.832155, -1.105591, +0.142700, -0.139038, -36.670193, -75.336113, +14.257448 
1488855202.836115, 1488855202.836115, -1.105591, -0.056030, -0.266357, -28.354155, -63.449520, +15.813845 
1488855202.840072, 1488855202.840072, -1.049927, -0.056030, -0.266357, -28.354155, -63.449520, +15.813845 
1488855202.844033, 1488855202.844033, -1.049927, -0.056030, -0.266357, -28.354155, -63.449520, +15.813845 
1488855202.847989, 1488855202.847989, -1.049927, -0.056030, -0.266357, -3.497587, -50.418514, +22.832888 
1488855202.851931, 1488855202.851931, -1.049927, -0.056030, -0.266357, -3.497587, -50.418514, +22.832888 
1488855202.855883, 1488855202.855883, -1.049927, +0.131470, -0.310303, -3.497587, -50.418514, +22.832888 
1488855202.860067, 1488855202.860067, -1.251953, +0.147827, -0.310303, +12.737764, -44.421810, +25.152224 
1488855202.863990, 1488855202.863990, -1.251953, +0.147827, -0.310303, +12.737764, -44.421810, +25.152224 
1488855202.867998, 1488855202.867998, -1.251953, +0.147827, -0.310303, +12.402071, -41.400570, +18.865602 
1488855202.872356, 1488855202.872356, -1.251953, +0.147827, -0.310303, +12.402071, -41.400570, +18.865602 
1488855202.876158, 1488855202.876158, -1.126953, -0.015747, -0.215820, +12.402071, -41.400570, +18.865602 
1488855202.879918, 1488855202.879918, -1.143677, -0.015747, -0.215820, +4.391207, -38.669247, +16.042727 
1488855202.883721, 1488855202.883721, -1.143677, -0.015747, -0.215820, +4.391207, -38.669247, +16.042727 
1488855202.887673, 1488855202.887673, -1.143677, -0.015747, -0.215820, +4.391207, -38.669247, +16.042727 
1488855202.891731, 1488855202.891731, -1.143677, -0.015747, -0.215820, +15.575899, -35.159725, +19.140261 
1488855202.895566, 1488855202.895566, -1.143677, -0.109497, -0.529663, +15.575899, -35.159725, +19.140261 
1488855202.899317, 1488855202.899317, -1.053711, -0.108521, -0.529663, +15.575899, -35.159725, +19.140261 
1488855202.903068, 1488855202.903068, -1.053711, -0.108521, -0.529663, +33.367649, -28.232233, +25.472658 
1488855202.906826, 1488855202.906826, -1.053711, -0.108521, -0.529663, +33.367649, -28.232233, +25.472658 
1488855202.910583, 1488855202.910583, -1.053711, -0.108521, -0.529663, +33.367649, -28.232233, +25.472658 
1488855202.914480, 1488855202.914480, -1.053711, -0.108521, -0.529663, +36.541477, -25.500910, +33.041019 
1488855202.918233, 1488855202.918233, -1.078003, +0.271118, -0.527832, +36.541477, -25.500910, +33.041019 
1488855202.921990, 1488855202.921990, -1.078003, +0.271118, -0.527832, +36.541477, -25.500910, +34.002323 
1488855202.925878, 1488855202.925878, -1.078003, +0.271118, -0.527832, +27.004732, -34.961361, +34.002323 
1488855202.929637, 1488855202.929637, -1.078003, +0.271118, -0.527832, +27.004732, -34.961361, +34.002323 
1488855202.933412, 1488855202.933412, -1.078003, +0.271118, -0.527832, +7.473483, -46.497005, +29.760378 
1488855202.937360, 1488855202.937360, -1.003662, +0.218506, -0.598267, +8.785738, -46.497005, +29.760378 
1488855202.941304, 1488855202.941304, -1.003662, +0.218506, -0.598267, +8.785738, -46.497005, +29.760378 
1488855202.945304, 1488855202.945304, -1.003662, +0.218506, -0.598267, -8.319365, -58.688778, +30.523317 
1488855202.949250, 1488855202.949250, -1.003662, +0.218506, -0.598267, -8.319365, -58.688778, +30.523317 
1488855202.953232, 1488855202.953232, -1.003662, +0.218506, -0.598267, -8.319365, -58.688778, +30.523317 
1488855202.956984, 1488855202.956984, -0.914185, +0.272827, -0.439697, -17.734037, -64.059868, +30.675905 
1488855202.960733, 1488855202.960733, -0.914185, +0.272827, -0.439697, -17.734037, -64.059868, +30.675905 
1488855202.964844, 1488855202.964844, -0.914185, +0.272827, -0.439697, -17.734037, -64.059868, +30.675905 
1488855202.968795, 1488855202.968795, -0.914185, +0.272827, -0.439697, -28.338896, -67.157402, +32.308598 
1488855202.973470, 1488855202.973470, -0.914185, +0.272827, -0.439697, -28.338896, -67.157402, +32.308598 
1488855202.977241, 1488855202.977241, -1.051758, +0.184082, -0.432373, -37.494167, -67.081108, +30.508059 
1488855202.980983, 1488855202.980983, -1.051758, +0.184082, -0.432373, -37.494167, -67.081108, +30.508059 
1488855202.984744, 1488855202.984744, -1.051758, +0.184082, -0.432373, -37.494167, -67.081108, +30.508059 
1488855202.988488, 1488855202.988488, -1.051758, +0.184082, -0.432373, -33.572659, -63.922543, +30.889528 
1488855202.992238, 1488855202.992238, -1.051758, +0.184082, -0.432373, -33.572659, -63.922543, +30.889528 
1488855202.995996, 1488855202.995996, -1.174927, +0.254150, -0.279541, -33.572659, -63.922543, +30.889528 
1488855202.999744, 1488855202.999744, -1.174927, +0.254150, -0.279541, -31.985746, -61.175961, +29.333132 
1488855203.003592, 1488855203.003592, -1.174927, +0.254150, -0.279541, -31.985746, -61.175961, +29.333132 
1488855203.007335, 1488855203.007335, -1.174927, +0.254150, -0.279541, -31.985746, -61.175961, +29.333132 
1488855203.011080, 1488855203.011080, -1.174927, +0.254150, -0.279541, -34.457668, -57.895321, +28.295534 
1488855203.014970, 1488855203.014970, -1.174927, +0.223633, -0.218628, -34.457668, -57.895321, +28.295534 
1488855203.018728, 1488855203.018728, -1.161133, +0.223633, -0.218628, -34.457668, -57.895321, +28.295534 
1488855203.022479, 1488855203.022479, -1.161133, +0.223633, -0.218628, -39.538845, -55.972713, +25.198000 
1488855203.026387, 1488855203.026387, -1.161133, +0.223633, -0.218628, -39.538845, -55.972713, +25.198000 
1488855203.030140, 1488855203.030140, -1.161133, +0.223633, -0.218628, -39.538845, -55.972713, +25.198000 
1488855203.033951, 1488855203.033951, -1.161133, +0.223633, -0.218628, -41.522488, -55.652279, +24.496096 
1488855203.038026, 1488855203.038026, -1.088013, +0.104736, -0.180298, -41.522488, -55.652279, +24.496096 
1488855203.041976, 1488855203.041976, -1.088013, +0.104736, -0.180298, -41.522488, -55.652279, +24.770754 
1488855203.045941, 1488855203.045941, -1.088013, +0.104736, -0.180298, -38.241848, -55.698055, +24.770754 
1488855203.049888, 1488855203.049888, -1.088013, +0.104736, -0.180298, -38.241848, -55.698055, +24.770754 
1488855203.053882, 1488855203.053882, -1.088013, +0.104736, -0.180298, -30.597197, -53.226131, +27.151125 
1488855203.057839, 1488855203.057839, -1.061890, +0.241333, -0.158447, -30.597197, -53.226131, +27.151125 
1488855203.061780, 1488855203.061780, -1.061890, +0.241333, -0.158447, -30.597197, -53.226131, +27.151125 
1488855203.065803, 1488855203.065803, -1.061890, +0.241333, -0.158447, -24.661528, -52.722591, +30.340212 
1488855203.069754, 1488855203.069754, -1.061890, +0.241333, -0.158447, -24.661528, -52.722591, +30.340212 
1488855203.073690, 1488855203.073690, -1.061890, +0.241333, -0.158447, -24.661528, -52.722591, +30.340212 
1488855203.077433, 1488855203.077433, -1.048096, +0.317505, -0.299438, -28.705107, -53.775448, +28.829592 
1488855203.081361, 1488855203.081361, -1.048096, +0.317505, -0.299438, -28.705107, -53.775448, +28.829592 
1488855203.085828, 1488855203.085828, -1.048096, +0.317505, -0.299438, -28.705107, -54.126400, +27.807253 
1488855203.089566, 1488855203.089566, -1.048096, +0.317505, -0.299438, -32.443508, -54.126400, +27.807253 
1488855203.093420, 1488855203.093420, -1.048096, +0.317505, -0.299438, -32.443508, -54.126400, +27.807253 
1488855203.097170, 1488855203.097170, -1.144775, +0.366699, -0.311401, -38.012966, -56.476254, +28.036135 
1488855203.100919, 1488855203.100919, -1.144775, +0.366699, -0.311401, -38.012966, -56.476254, +28.036135 
1488855203.104678, 1488855203.104678, -1.144775, +0.366699, -0.311401, -38.012966, -56.476254, +28.036135 
1488855203.108425, 1488855203.108425, -1.144775, +0.366699, -0.311401, -40.256008, -59.970516, +27.471560 
1488855203.112177, 1488855203.112177, -1.144775, +0.366699, -0.311401, -40.256008, -59.970516, +27.471560 
1488855203.115968, 1488855203.115968, -1.265381, +0.176880, -0.321899, -40.256008, -59.970516, +27.471560 
1488855203.119827, 1488855203.119827, -1.265381, +0.176880, -0.321899, -37.799343, -63.892025, +28.539675 
1488855203.123578, 1488855203.123578, -1.265381, +0.176880, -0.321899, -37.799343, -63.892025, +28.539675 
1488855203.127364, 1488855203.127364, -1.265381, +0.176880, -0.321899, -37.799343, -63.892025, +28.539675 
1488855203.131102, 1488855203.131102, -1.265381, +0.176880, -0.321899, -36.334499, -70.331230, +32.125492 
1488855203.134973, 1488855203.134973, -1.388184, +0.087158, -0.274170, -36.334499, -70.331230, +32.125492 
1488855203.138723, 1488855203.138723, -1.388184, +0.087158, -0.274170, -36.334499, -70.331230, +32.125492 
1488855203.142469, 1488855203.142469, -1.388184, +0.087158, -0.274170, -36.624416, -79.517021, +35.070438 
1488855203.146311, 1488855203.146311, -1.388184, +0.087158, -0.274170, -36.624416, -79.517021, +35.070438 
1488855203.150055, 1488855203.150055, -1.388184, +0.087158, -0.274170, -36.624416, -79.517021, +35.070438 
1488855203.153858, 1488855203.153858, -1.388184, +0.180908, -0.265259, -32.504543, -87.329521, +39.281864 
1488855203.157600, 1488855203.157600, -1.479370, +0.174561, -0.265259, -32.504543, -87.329521, +39.281864 
1488855203.161346, 1488855203.161346, -1.479370, +0.174561, -0.265259, -32.504543, -87.329521, +43.188114 
1488855203.165218, 1488855203.165218, -1.479370, +0.174561, -0.265259, -29.941069, -95.004692, +44.286747 
1488855203.169158, 1488855203.169158, -1.479370, +0.174561, -0.265259, -29.941069, -95.004692, +44.286747 
1488855203.173119, 1488855203.173119, -1.479370, +0.174561, -0.265259, -29.941069, -102.725639, +49.413700 
1488855203.176871, 1488855203.176871, -1.535889, +0.139893, -0.308228, -31.680571, -102.725639, +49.413700 
1488855203.180624, 1488855203.180624, -1.535889, +0.139893, -0.308228, -31.680571, -102.725639, +49.413700 
1488855203.184627, 1488855203.184627, -1.535889, +0.139893, -0.308228, -35.830959, -110.583916, +52.297611 
1488855203.188586, 1488855203.188586, -1.535889, +0.139893, -0.308228, -35.830959, -110.583916, +52.297611 
1488855203.192531, 1488855203.192531, -1.535889, +0.139893, -0.308228, -35.830959, -110.583916, +52.297611 
1488855203.196526, 1488855203.196526, -1.645264, +0.001221, -0.140503, -35.190090, -120.898857, +55.257816 
1488855203.200678, 1488855203.200678, -1.645264, +0.001221, -0.140503, -35.190090, -120.898857, +55.257816 
1488855203.204924, 1488855203.204924, -1.645264, +0.001221, -0.140503, -35.190090, -120.898857, +55.257816 
1488855203.208880, 1488855203.208880, -1.645264, +0.001221, -0.140503, -33.816799, -130.908630, +57.729740 
1488855203.212830, 1488855203.212830, -1.645264, +0.001221, -0.359253, -33.816799, -130.908630, +57.729740 
1488855203.216797, 1488855203.216797, -1.619751, +0.056519, -0.346191, -29.361235, -136.890076, +62.414188 
1488855203.220751, 1488855203.220751, -1.619751, +0.056519, -0.346191, -29.361235, -136.890076, +62.414188 
1488855203.224638, 1488855203.224638, -1.619751, +0.056519, -0.346191, -29.361235, -136.890076, +62.414188 
1488855203.228395, 1488855203.228395, -1.619751, +0.056519, -0.346191, -30.993925, -142.795227, +67.663208 
1488855203.232148, 1488855203.232148, -1.619751, +0.056519, -0.346191, -30.993925, -142.795227, +67.663208 
1488855203.235965, 1488855203.235965, -1.623047, +0.166870, -0.667236, -30.993925, -142.795227, +67.663208 
1488855203.239710, 1488855203.239710, -1.623047, +0.166870, -0.667236, -44.314846, -147.891663, +67.937866 
1488855203.243506, 1488855203.243506, -1.623047, +0.166870, -0.667236, -44.314846, -147.891663, +67.937866 
1488855203.247254, 1488855203.247254, -1.623047, +0.166870, -0.667236, -44.314846, -147.891663, +67.937866 
1488855203.251014, 1488855203.251014, -1.623047, +0.166870, -0.667236, -54.599270, -153.934143, +74.270264 
1488855203.254943, 1488855203.254943, -1.920288, +0.387451, -0.944092, -54.599270, -153.934143, +74.270264 
1488855203.258694, 1488855203.258694, -1.920288, +0.387451, -0.944092, -54.599270, -153.934143, +74.270264 
1488855203.262444, 1488855203.262444, -1.920288, +0.387451, -0.944092, -75.305450, -157.443665, +76.971069 
1488855203.266296, 1488855203.266296, -1.920288, +0.387451, -0.944092, -75.305450, -157.443665, +76.971069 
1488855203.270052, 1488855203.270052, -1.920288, +0.387451, -0.944092, -75.305450, -157.443665, +76.971069 
1488855203.273893, 1488855203.273893, -2.103516, +0.329834, -1.274414, -105.319489, -161.868713, +74.270264 
1488855203.277851, 1488855203.277851, -2.103516, +0.329834, -1.274414, -105.319489, -161.868713, +74.270264 
1488855203.281802, 1488855203.281802, -2.103516, +0.329834, -1.274414, -105.319489, -168.826721, +71.950928 
1488855203.285765, 1488855203.285765, -2.103516, +0.329834, -1.274414, -136.188019, -168.826721, +71.950928 
1488855203.289717, 1488855203.289717, -2.103516, +0.329834, -1.274414, -136.188019, -168.826721, +71.950928 
1488855203.293676, 1488855203.293676, -1.896973, -0.046875, -1.560791, -149.631012, -167.316101, +72.027222 
1488855203.297631, 1488855203.297631, -1.896973, -0.046875, -1.560791, -149.631012, -167.316101, +72.027222 
1488855203.301576, 1488855203.301576, -1.896973, -0.046875, -1.560791, -149.631012, -167.316101, +72.027222 
1488855203.305545, 1488855203.305545, -1.896973, -0.046875, -1.560791, -154.605377, -161.075256, +68.441406 
1488855203.309498, 1488855203.309498, -1.896973, -0.046875, -1.560791, -154.605377, -161.075256, +68.441406 
1488855203.313465, 1488855203.313465, -2.264771, -0.071655, -0.600586, -154.605377, -161.075256, +68.441406 
1488855203.317224, 1488855203.317224, -2.264771, -0.071655, -0.600586, -166.095245, -162.723206, +59.545536 
1488855203.321133, 1488855203.321133, -2.264771, -0.071655, -0.600586, -166.095245, -162.723206, +59.545536 
1488855203.325327, 1488855203.325327, -2.264771, -0.071655, -0.600586, -166.095245, -174.441956, +51.382084 
1488855203.329274, 1488855203.329274, -2.264771, -0.071655, -0.600586, -191.897858, -172.122620, +51.382084 
1488855203.333375, 1488855203.333375, -2.103394, -0.061401, -0.434692, -191.897858, -172.122620, +51.382084 
1488855203.337327, 1488855203.337327, -2.103394, -0.061401, -0.434692, -212.222565, -170.200012, +41.280766 
1488855203.341273, 1488855203.341273, -2.103394, -0.061401, -0.434692, -212.222565, -170.200012, +41.280766 
1488855203.345231, 1488855203.345231, -2.103394, -0.061401, -0.434692, -212.222565, -170.200012, +41.280766 
1488855203.349180, 1488855203.349180, -2.103394, -0.061401, -0.434692, -220.675934, -160.617493, +39.312382 
1488855203.353136, 1488855203.353136, -1.542725, +0.120239, -0.309937, -220.675934, -160.617493, +39.312382 
1488855203.356889, 1488855203.356889, -1.542725, +0.120239, -0.309937, -220.675934, -160.617493, +39.312382 
1488855203.360638, 1488855203.360638, -1.542725, +0.120239, -0.309937, -205.462921, -143.680237, +34.307499 
1488855203.364445, 1488855203.364445, -1.542725, +0.120239, -0.309937, -205.462921, -143.680237, +34.307499 
1488855203.368192, 1488855203.368192, -1.542725, +0.120239, -0.309937, -205.462921, -143.680237, +34.307499 
1488855203.371951, 1488855203.371951, -1.542725, +0.120239, -0.403687, -118.457306, -127.887383, +34.826298 
1488855203.375882, 1488855203.375882, -1.037109, +0.289185, -0.379639, -118.457306, -127.887383, +34.826298 
1488855203.379641, 1488855203.379641, -1.037109, +0.289185, -0.379639, -118.457306, -127.887383, +38.015385 
1488855203.383516, 1488855203.383516, -1.037109, +0.289185, -0.379639, -27.301298, -113.345757, +38.015385 
1488855203.387275, 1488855203.387275, -1.037109, +0.289185, -0.379639, -27.301298, -113.345757, +38.015385 
1488855203.391028, 1488855203.391028, -1.037109, +0.289185, -0.379639, +7.854952, -106.341972, +41.158695 
1488855203.395005, 1488855203.395005, -0.970337, +0.705078, +1.094360, +8.144869, -106.341972, +41.158695 
1488855203.399734, 1488855203.399734, -0.970337, +0.705078, +1.094360, +8.144869, -106.341972, +41.158695 
1488855203.403526, 1488855203.403526, -0.970337, +0.705078, +1.094360, +22.930635, -109.897270, +44.027348 
1488855203.407277, 1488855203.407277, -0.970337, +0.705078, +1.094360, +22.930635, -109.897270, +44.027348 
1488855203.411025, 1488855203.411025, -0.970337, +0.705078, +1.094360, +22.930635, -109.897270, +44.027348 
1488855203.414811, 1488855203.414811, -0.027100, -0.012573, +0.770386, +52.319065, -88.489189, +25.289553 
1488855203.418557, 1488855203.418557, -0.027100, -0.012573, +0.770386, +52.319065, -88.489189, +25.289553 
1488855203.422304, 1488855203.422304, -0.027100, -0.012573, +0.770386, +52.319065, -88.489189, +25.289553 
1488855203.426060, 1488855203.426060, -0.027100, -0.012573, +0.770386, +58.056370, -41.446346, -1.855833 
1488855203.429802, 1488855203.429802, -0.027100, -0.012573, +0.770386, +58.056370, -41.446346, -1.855833 
1488855203.433570, 1488855203.433570, +0.003418, -0.056885, +0.295898, +58.056370, -41.446346, -1.855833 
1488855203.437319, 1488855203.437319, +0.003418, -0.056885, +0.295898, +59.261814, -5.618708, -11.667234 
1488855203.441066, 1488855203.441066, +0.003418, -0.056885, +0.295898, +59.261814, -5.618708, -11.667234 
1488855203.444958, 1488855203.444958, +0.003418, -0.056885, +0.295898, +59.261814, -5.618708, -14.993650 
1488855203.448712, 1488855203.448712, +0.003418, -0.056885, +0.295898, +70.980560, +22.243841, -14.993650 
1488855203.452467, 1488855203.452467, +0.135132, -0.150757, -0.093384, +70.980560, +22.243841, -14.993650 
1488855203.456491, 1488855203.456491, +0.135132, -0.150757, -0.093384, +78.930389, +54.958683, -19.647581 
1488855203.460439, 1488855203.460439, +0.135132, -0.150757, -0.093384, +78.930389, +54.958683, -19.647581 
1488855203.464335, 1488855203.464335, +0.135132, -0.150757, -0.093384, +78.930389, +54.958683, -19.647581 
1488855203.468091, 1488855203.468091, +0.135132, -0.150757, -0.093384, +81.539642, +89.367256, -24.835569 
1488855203.471848, 1488855203.471848, +0.135132, +0.062256, -0.473755, +81.539642, +89.367256, -24.835569 
1488855203.475735, 1488855203.475735, +0.234375, +0.062256, -0.473755, +81.539642, +89.367256, -24.835569 
1488855203.479799, 1488855203.479799, +0.234375, +0.062256, -0.473755, +78.228485, +121.563301, -27.734739 
1488855203.483763, 1488855203.483763, +0.234375, +0.062256, -0.473755, +78.228485, +121.563301, -27.734739 
1488855203.487708, 1488855203.487708, +0.234375, +0.062256, -0.473755, +78.228485, +121.563301, -27.734739 
1488855203.491657, 1488855203.491657, +0.234375, +0.119263, -0.255615, +69.149506, +140.880920, -35.303097 
1488855203.495617, 1488855203.495617, -0.057007, +0.119263, -0.255615, +69.149506, +140.880920, -35.303097 
1488855203.499560, 1488855203.499560, -0.057007, +0.119263, -0.255615, +69.149506, +148.693420, -49.539547 
1488855203.503515, 1488855203.503515, -0.057007, +0.119263, -0.255615, +53.432957, +149.380066, -49.539547 
1488855203.507464, 1488855203.507464, -0.057007, +0.119263, -0.255615, +53.432957, +149.380066, -49.539547 
1488855203.511530, 1488855203.511530, -0.057007, +0.025146, -0.042236, +32.421604, +153.393127, -64.661011 
1488855203.515783, 1488855203.515783, -0.181885, +0.025146, -0.042236, +32.421604, +153.393127, -64.661011 
1488855203.519580, 1488855203.519580, -0.181885, +0.025146, -0.042236, +32.421604, +153.393127, -64.661011 
1488855203.523352, 1488855203.523352, -0.181885, +0.025146, -0.042236, +20.428194, +160.564758, -78.638062 
1488855203.527252, 1488855203.527252, -0.181885, +0.025146, -0.042236, +20.428194, +160.564758, -78.638062 
1488855203.531259, 1488855203.531259, -0.181885, -0.068604, -0.001831, +20.428194, +160.564758, -78.638062 
1488855203.535181, 1488855203.535181, -0.157593, -0.077881, -0.001831, +18.429293, +172.680237, -90.707764 
1488855203.539116, 1488855203.539116, -0.157593, -0.077881, -0.001831, +18.429293, +172.680237, -90.707764 
1488855203.543067, 1488855203.543067, -0.157593, -0.077881, -0.001831, +18.429293, +172.680237, -101.633057 
1488855203.546818, 1488855203.546818, -0.157593, -0.077881, -0.001831, +20.916475, +185.238220, -101.633057 
1488855203.550575, 1488855203.550575, -0.157593, -0.077881, -0.158081, +20.916475, +185.238220, -101.633057 
1488855203.554336, 1488855203.554336, -0.129517, -0.130493, -0.156738, +20.916475, +201.580383, -111.124023 
1488855203.558086, 1488855203.558086, -0.129517, -0.130493, -0.156738, +27.004732, +201.580383, -111.124023 
1488855203.561838, 1488855203.561838, -0.129517, -0.130493, -0.156738, +27.004732, +201.580383, -111.124023 
1488855203.565737, 1488855203.565737, -0.129517, -0.130493, -0.156738, +32.085911, +217.190125, -117.654785 
1488855203.569491, 1488855203.569491, -0.129517, -0.130493, -0.156738, +32.085911, +217.190125, -117.654785 
1488855203.573396, 1488855203.573396, -0.292236, -0.100342, -0.319214, +32.085911, +217.190125, -117.654785 
1488855203.577349, 1488855203.577349, -0.292236, -0.100342, -0.319214, +33.672825, +231.090881, -125.146851 
1488855203.581309, 1488855203.581309, -0.292236, -0.100342, -0.319214, +33.672825, +231.090881, -125.146851 
1488855203.585302, 1488855203.585302, -0.292236, -0.100342, -0.319214, +33.672825, +231.090881, -125.146851 
1488855203.589247, 1488855203.589247, -0.292236, -0.100342, -0.319214, +35.320774, +244.976379, -132.104858 
1488855203.593247, 1488855203.593247, -0.469604, -0.160034, -0.385376, +35.320774, +244.976379, -132.104858 
1488855203.597192, 1488855203.597192, -0.469604, -0.160034, -0.385376, +35.320774, +244.976379, -137.308105 
1488855203.601145, 1488855203.601145, -0.469604, -0.160034, -0.385376, +37.868992, +259.106018, -137.308105 
1488855203.605107, 1488855203.605107, -0.469604, -0.160034, -0.385376, +37.868992, +259.106018, -137.308105 
1488855203.609057, 1488855203.609057, -0.469604, -0.160034, -0.385376, +41.103855, +272.854187, -140.008911 
1488855203.613019, 1488855203.613019, -0.679199, -0.142944, -0.431030, +41.103855, +272.854187, -140.008911 
1488855203.616773, 1488855203.616773, -0.679199, -0.142944, -0.431030, +41.103855, +272.854187, -140.008911 
1488855203.620523, 1488855203.620523, -0.679199, -0.142944, -0.431030, +44.582859, +284.633972, -141.168579 
1488855203.624283, 1488855203.624283, -0.679199, -0.142944, -0.431030, +44.582859, +284.633972, -141.168579 
1488855203.628147, 1488855203.628147, -0.679199, -0.142944, -0.431030, +44.582859, +284.633972, -141.168579 
1488855203.632115, 1488855203.632115, -0.931519, -0.000854, -0.488770, +44.155613, +296.444275, -142.801270 
1488855203.636344, 1488855203.636344, -0.931519, -0.000854, -0.488770, +44.155613, +296.444275, -142.801270 
1488855203.640298, 1488855203.640298, -0.931519, -0.000854, -0.488770, +44.155613, +296.444275, -142.801270 
1488855203.644287, 1488855203.644287, -0.931519, -0.000854, -0.488770, +42.736546, +311.397888, -143.945679 
1488855203.648238, 1488855203.648238, -0.931519, -0.000854, -0.488770, +42.736546, +311.397888, -143.945679 
1488855203.652181, 1488855203.652181, -1.282715, +0.131836, -0.510864, +42.736546, +327.328064, -142.938599 
1488855203.656141, 1488855203.656141, -1.282715, +0.131836, -0.510864, +47.009007, +327.328064, -142.938599 
1488855203.660095, 1488855203.660095, -1.282715, +0.131836, -0.510864, +47.009007, +327.328064, -142.938599 
1488855203.664046, 1488855203.664046, -1.282715, +0.131836, -0.510864, +61.459080, +344.463684, -136.972412 
1488855203.667800, 1488855203.667800, -1.282715, +0.131836, -0.510864, +61.459080, +344.463684, -136.972412 
1488855203.671553, 1488855203.671553, -1.832642, +0.197998, -0.620361, +61.459080, +344.463684, -136.972412 
1488855203.675320, 1488855203.675320, -1.832642, +0.197998, -0.620361, +86.376678, +360.454895, -127.817139 
1488855203.679079, 1488855203.679079, -1.832642, +0.197998, -0.620361, +86.376678, +360.454895, -127.817139 
1488855203.682835, 1488855203.682835, -1.832642, +0.197998, -0.620361, +86.376678, +360.454895, -127.817139 
1488855203.686703, 1488855203.686703, -1.832642, +0.197998, -0.620361, +111.736786, +368.831970, -118.890747 
1488855203.690454, 1488855203.690454, -1.832642, +0.230225, -0.564331, +111.736786, +368.831970, -118.890747 
1488855203.694410, 1488855203.694410, -2.869507, +0.230225, -0.564331, +111.736786, +368.831970, -118.890747 
1488855203.698356, 1488855203.698356, -2.869507, +0.230225, -0.564331, +144.085419, +365.917542, -107.156738 
1488855203.702301, 1488855203.702301, -2.869507, +0.230225, -0.564331, +144.085419, +365.917542, -107.156738 
1488855203.706292, 1488855203.706292, -2.869507, +0.230225, -0.564331, +144.085419, +365.917542, -100.870117 
1488855203.710242, 1488855203.710242, -2.869507, +0.281616, -0.096436, +163.967621, +357.265808, -100.870117 
1488855203.714202, 1488855203.714202, -3.464478, +0.281616, -0.096436, +163.967621, +357.265808, -100.870117 
1488855203.718158, 1488855203.718158, -3.464478, +0.281616, -0.096436, +152.599823, +336.757996, -99.985107 
1488855203.722108, 1488855203.722108, -3.464478, +0.281616, -0.096436, +152.599823, +336.757996, -99.985107 
1488855203.725949, 1488855203.725949, -3.464478, +0.281616, -0.096436, +152.599823, +336.757996, -99.985107 
1488855203.729702, 1488855203.729702, -3.464478, +0.281616, +0.521484, +143.948090, +303.173401, -89.853271 
1488855203.733534, 1488855203.733534, -3.497437, +1.166382, +0.521484, +143.948090, +303.173401, -89.853271 
1488855203.737490, 1488855203.737490, -3.497437, +1.166382, +0.521484, +143.948090, +303.173401, -89.853271 
1488855203.741440, 1488855203.741440, -3.497437, +1.166382, +0.521484, +169.689667, +259.487488, -66.415771 
1488855203.745399, 1488855203.745399, -3.497437, +1.166382, +0.521484, +169.689667, +259.487488, -66.415771 
1488855203.749540, 1488855203.749540, -3.497437, +1.166382, +1.343262, +169.689667, +259.487488, -46.884518 
1488855203.753882, 1488855203.753882, -3.059814, +2.100342, +1.343262, +198.833954, +194.362976, -45.175533 
1488855203.757837, 1488855203.757837, -3.059814, +2.100342, +1.343262, +198.833954, +194.362976, -45.175533 
1488855203.761784, 1488855203.761784, -3.059814, +2.100342, +1.343262, +177.532684, +115.993843, -21.539671 
1488855203.765740, 1488855203.765740, -3.059814, +2.100342, +1.343262, +177.532684, +115.993843, -21.539671 
1488855203.769687, 1488855203.769687, -3.059814, +2.129517, +2.323120, +177.532684, +115.993843, -21.539671 
1488855203.773762, 1488855203.773762, -2.903198, +2.129517, +2.323120, +128.078949, +18.352850, +12.365358 
1488855203.777517, 1488855203.777517, -2.903198, +2.129517, +2.323120, +128.078949, +18.352850, +12.365358 
1488855203.781266, 1488855203.781266, -2.903198, +2.129517, +2.323120, +128.078949, +18.352850, +12.365358 
1488855203.785031, 1488855203.785031, -2.903198, +2.129517, +2.323120, +66.235077, -55.347103, +42.608280 
1488855203.788773, 1488855203.788773, -2.903198, +2.129517, +2.323120, +66.235077, -55.347103, +42.608280 
1488855203.792524, 1488855203.792524, -1.736572, +1.342041, +0.490967, +66.235077, -55.347103, +42.608280 
1488855203.796328, 1488855203.796328, -1.736572, +1.342041, +0.490967, +14.767183, -84.582939, +79.168335 
1488855203.800080, 1488855203.800080, -1.736572, +1.342041, +0.490967, +14.767183, -84.582939, +79.168335 
1488855203.803978, 1488855203.803978, -1.736572, +1.342041, +0.490967, +14.767183, -84.582939, +79.168335 
1488855203.807733, 1488855203.807733, -1.736572, +1.342041, +0.490967, +10.433687, -100.497856, +67.846313 
1488855203.811487, 1488855203.811487, -0.481934, -2.086060, -2.423950, +10.433687, -100.497856, +67.846313 
1488855203.815436, 1488855203.815436, -0.481934, -2.086060, -2.423950, +10.433687, -77.060356, +5.529421 
1488855203.819378, 1488855203.819378, -0.481934, -2.086060, -2.423950, -10.974394, -76.724663, +5.529421 
1488855203.823325, 1488855203.823325, -0.481934, -2.086060, -2.423950, -10.974394, -76.724663, +5.529421 
1488855203.827071, 1488855203.827071, -0.481934, -2.086060, -2.423950, -38.470730, -68.866386, -8.951170 
1488855203.830823, 1488855203.830823, -2.252319, -0.185913, +0.833862, -38.470730, -68.866386, -8.951170 
1488855203.834698, 1488855203.834698, -2.252319, -0.185913, +0.833862, -38.470730, -68.866386, -8.951170 
1488855203.838645, 1488855203.838645, -2.252319, -0.185913, +0.833862, -58.597073, -145.969055, +3.240603 
1488855203.842590, 1488855203.842590, -2.252319, -0.185913, +0.833862, -58.597073, -145.969055, +3.240603 
1488855203.846549, 1488855203.846549, -2.252319, -0.185913, +0.833862, -58.597073, -145.969055, +3.240603 
1488855203.850495, 1488855203.850495, -1.662109, +0.646851, -0.257202, -93.997467, -208.209656, +18.407839 
1488855203.854490, 1488855203.854490, -1.662109, +0.646851, -0.257202, -93.997467, -208.209656, +18.407839 
1488855203.858436, 1488855203.858436, -1.662109, +0.646851, -0.257202, -93.997467, -208.209656, +18.407839 
1488855203.862385, 1488855203.862385, -1.662109, +0.646851, -0.257202, -100.100983, -159.488342, +43.523808 
1488855203.866344, 1488855203.866344, -1.662109, +0.646851, -0.257202, -100.100983, -159.488342, +43.523808 
1488855203.870453, 1488855203.870453, -1.714600, +0.747314, -0.475708, -124.438751, -89.343681, +84.920898 
1488855203.874657, 1488855203.874657, -1.714600, +0.747314, -0.475708, -124.438751, -89.343681, +84.920898 
1488855203.878407, 1488855203.878407, -1.714600, +0.747314, -0.475708, -124.438751, -89.343681, +84.920898 
1488855203.882156, 1488855203.882156, -1.714600, +0.747314, -0.475708, -79.898346, -84.262505, +148.626343 
1488855203.886114, 1488855203.886114, -1.714600, +0.747314, -0.475708, -79.898346, -84.262505, +148.626343 
1488855203.890067, 1488855203.890067, -1.768921, -0.513672, +0.024170, -79.898346, -84.262505, +148.626343 
1488855203.894016, 1488855203.894016, -1.768921, -0.513672, +0.024170, +16.918673, -96.133842, +151.296631 
1488855203.897963, 1488855203.897963, -1.768921, -0.513672, +0.024170, +16.918673, -96.133842, +151.296631 
1488855203.901914, 1488855203.901914, -1.768921, -0.513672, +0.024170, +16.918673, -96.133842, +108.587280 
1488855203.906397, 1488855203.906397, -1.768921, -0.513672, +0.024170, +52.273289, -94.119682, +108.587280 
1488855203.910142, 1488855203.910142, -1.347900, -0.203247, -0.111694, +52.273289, -94.119682, +108.587280 
1488855203.914020, 1488855203.914020, -1.347900, -0.203247, -0.111694, +71.804535, -110.446587, +101.461426 
1488855203.917762, 1488855203.917762, -1.347900, -0.203247, -0.111694, +72.140228, -110.446587, +101.461426 
1488855203.921512, 1488855203.921512, -1.347900, -0.203247, -0.111694, +72.140228, -110.446587, +101.461426 
1488855203.925407, 1488855203.925407, -1.347900, -0.203247, -0.111694, +112.209808, -122.195854, +107.870117 
1488855203.929161, 1488855203.929161, -0.672241, +0.822021, -0.365479, +112.209808, -122.195854, +107.870117 
1488855203.932912, 1488855203.932912, -0.672241, +0.822021, -0.365479, +112.209808, -122.195854, +107.870117 
1488855203.936702, 1488855203.936702, -0.672241, +0.822021, -0.365479, +124.447357, -112.735405, +92.535034 
1488855203.940451, 1488855203.940451, -0.672241, +0.822021, -0.365479, +124.447357, -112.735405, +92.535034 
1488855203.944256, 1488855203.944256, -0.672241, +0.822021, -0.365479, +124.447357, -112.735405, +92.535034 
1488855203.948000, 1488855203.948000, -0.672241, +0.822021, -0.178101, +81.661713, -98.956718, +64.626709 
1488855203.951748, 1488855203.951748, -0.856689, +0.487671, -0.178101, +81.661713, -98.956718, +64.626709 
1488855203.955546, 1488855203.955546, -0.856689, +0.487671, -0.178101, +81.661713, -98.956718, +64.626709 
1488855203.959295, 1488855203.959295, -0.856689, +0.487671, -0.178101, +15.148653, -90.701714, +43.951054 
1488855203.963119, 1488855203.963119, -0.856689, +0.487671, -0.178101, +15.148653, -90.701714, +43.951054 
1488855203.966874, 1488855203.966874, -0.856689, +0.487671, -0.178101, +15.148653, -90.701714, +43.951054 
1488855203.970624, 1488855203.970624, -1.075439, +0.025391, -0.233276, +1.141085, -88.336601, +38.991947 
1488855203.974437, 1488855203.974437, -1.075439, +0.025391, -0.233276, +1.141085, -88.336601, +38.991947 
1488855203.978176, 1488855203.978176, -1.075439, +0.025391, -0.233276, +1.141085, -88.336601, +38.991947 
1488855203.981923, 1488855203.981923, -1.075439, +0.025391, -0.233276, +17.025484, -74.618950, +36.901493 
1488855203.985830, 1488855203.985830, -1.075439, +0.025391, -0.233276, +17.025484, -74.618950, +36.901493 
1488855203.989787, 1488855203.989787, -1.134277, +0.114746, -0.442139, +17.025484, -62.900204, +36.535282 
1488855203.993747, 1488855203.993747, -1.134277, +0.114746, -0.442139, +32.314793, -63.571590, +36.535282 
1488855203.997701, 1488855203.997701, -1.134277, +0.114746, -0.442139, +32.314793, -63.571590, +36.535282 
1488855204.001657, 1488855204.001657, -1.134277, +0.114746, -0.442139, +25.875582, -52.844662, +35.421391 
1488855204.005568, 1488855204.005568, -1.134277, +0.114746, -0.442139, +25.875582, -52.844662, +35.421391 
1488855204.009326, 1488855204.009326, -1.288330, +0.175537, -0.132812, +25.875582, -52.844662, +35.421391 
1488855204.013150, 1488855204.013150, -1.288330, +0.175537, -0.132812, +9.670748, -51.730770, +30.721682 
1488855204.017103, 1488855204.017103, -1.288330, +0.175537, -0.132812, +9.670748, -51.730770, +30.721682 
1488855204.021154, 1488855204.021154, -1.288330, +0.175537, -0.132812, +9.670748, -51.730770, +30.721682 
1488855204.025450, 1488855204.025450, -1.288330, +0.175537, -0.132812, -1.132474, -50.815243, +23.321169 
1488855204.029200, 1488855204.029200, -1.075073, +0.166992, -0.245728, -1.132474, -50.815243, +23.321169 
1488855204.032949, 1488855204.032949, -1.075073, +0.166992, -0.245728, -1.132474, -50.815243, +20.177858 
1488855204.036953, 1488855204.036953, -1.075073, +0.166992, -0.245728, -3.436552, -44.650692, +20.177858 
1488855204.040894, 1488855204.040894, -1.075073, +0.166992, -0.245728, -3.436552, -44.650692, +20.177858 
1488855204.044888, 1488855204.044888, -1.075073, +0.166992, -0.245728, +3.262057, -36.685604, +17.797487 
1488855204.048841, 1488855204.048841, -1.117310, +0.321777, -0.305542, +3.262057, -36.685604, +17.797487 
1488855204.052788, 1488855204.052788, -1.117310, +0.321777, -0.305542, +3.262057, -36.685604, +17.797487 
1488855204.056565, 1488855204.056565, -1.117310, +0.321777, -0.305542, +5.352511, -33.710140, +18.423098 
1488855204.060318, 1488855204.060318, -1.117310, +0.321777, -0.305542, +5.352511, -33.710140, +18.423098 
1488855204.064085, 1488855204.064085, -1.117310, +0.321777, -0.305542, +5.352511, -33.710140, +18.423098 
1488855204.067836, 1488855204.067836, -1.117310, +0.217163, -0.249146, +5.520358, -30.246393, +16.836184 
1488855204.071697, 1488855204.071697, -1.032227, +0.217163, -0.249146, +5.520358, -30.246393, +16.836184 
1488855204.075594, 1488855204.075594, -1.032227, +0.217163, -0.249146, +5.520358, -30.246393, +16.836184 
1488855204.079345, 1488855204.079345, -1.032227, +0.217163, -0.249146, +1.247897, -29.147760, +14.196413 
1488855204.083164, 1488855204.083164, -1.032227, +0.217163, -0.249146, +1.247897, -29.147760, +14.196413 
1488855204.087123, 1488855204.087123, -1.032227, +0.217163, -0.345947, +1.247897, -29.147760, +14.196413 
1488855204.091074, 1488855204.091074, -1.114258, +0.143555, -0.345947, -0.674711, -27.621881, +14.730471 
1488855204.095025, 1488855204.095025, -1.114258, +0.143555, -0.345947, -0.674711, -27.621881, +14.730471 
1488855204.098970, 1488855204.098970, -1.114258, +0.143555, -0.345947, -0.674711, -24.783747, +13.784426 
1488855204.102915, 1488855204.102915, -1.114258, +0.143555, -0.345947, -3.680692, -24.783747, +13.784426 
1488855204.106910, 1488855204.106910, -1.114258, +0.143555, -0.206787, -3.680692, -24.783747, +13.784426 
1488855204.110856, 1488855204.110856, -1.091064, +0.251709, -0.206787, -11.447416, -26.355402, +13.494509 
1488855204.114715, 1488855204.114715, -1.091064, +0.251709, -0.206787, -11.447416, -26.355402, +13.494509 
1488855204.118473, 1488855204.118473, -1.091064, +0.251709, -0.206787, -11.447416, -26.355402, +13.494509 
1488855204.122222, 1488855204.122222, -1.091064, +0.251709, -0.206787, -18.802153, -31.146662, +13.158815 
1488855204.126163, 1488855204.126163, -1.091064, +0.251709, -0.206787, -18.802153, -31.146662, +13.158815 
1488855204.130115, 1488855204.130115, -0.930786, +0.069092, -0.387329, -18.802153, -31.146662, +13.158815 
1488855204.134078, 1488855204.134078, -0.930786, +0.069092, -0.387329, -24.905668, -36.731380, +12.609499 
1488855204.138013, 1488855204.138013, -0.930786, +0.069092, -0.387329, -24.905668, -36.731380, +12.609499 
1488855204.142097, 1488855204.142097, -0.930786, +0.069092, -0.387329, -24.905668, -40.637630, +17.965334 
1488855204.146349, 1488855204.146349, -0.930786, +0.069092, -0.356079, -21.441923, -42.407650, +17.965334 
1488855204.150292, 1488855204.150292, -1.077271, +0.131104, -0.372803, -21.441923, -42.407650, +17.965334 
1488855204.154288, 1488855204.154288, -1.077271, +0.131104, -0.372803, -21.289335, -50.372738, +22.100466 
1488855204.158234, 1488855204.158234, -1.077271, +0.131104, -0.372803, -21.289335, -50.372738, +22.100466 
1488855204.162187, 1488855204.162187, -1.077271, +0.131104, -0.372803, -21.289335, -50.372738, +22.100466 
1488855204.165996, 1488855204.165996, -1.077271, +0.131104, -0.372803, -23.013578, -54.675716, +25.564211 
1488855204.169744, 1488855204.169744, -1.195312, +0.239258, -0.348877, -23.013578, -54.675716, +25.564211 
1488855204.173523, 1488855204.173523, -1.195312, +0.239258, -0.348877, -23.013578, -54.675716, +25.564211 
1488855204.177277, 1488855204.177277, -1.195312, +0.239258, -0.348877, -21.991240, -57.651180, +31.576174 
1488855204.181037, 1488855204.181037, -1.195312, +0.239258, -0.348877, -21.991240, -57.651180, +31.576174 
1488855204.184845, 1488855204.184845, -1.195312, +0.239258, -0.348877, -21.991240, -57.651180, +31.576174 
1488855204.188597, 1488855204.188597, -1.220825, +0.395264, -0.243408, -24.493681, -58.063168, +32.903690 
1488855204.192358, 1488855204.192358, -1.220825, +0.395264, -0.243408, -24.493681, -58.063168, +32.903690 
1488855204.196281, 1488855204.196281, -1.220825, +0.395264, -0.243408, -24.493681, -58.063168, +32.903690 
1488855204.200044, 1488855204.200044, -1.220825, +0.395264, -0.243408, -30.139433, -58.444637, +34.032841 
1488855204.203985, 1488855204.203985, -1.220825, +0.395264, -0.243408, -30.139433, -58.444637, +34.032841 
1488855204.207936, 1488855204.207936, -1.192749, +0.280151, -0.167725, -37.951931, -59.405941, +30.416506 
1488855204.211882, 1488855204.211882, -1.192749, +0.280151, -0.167725, -38.989529, -59.405941, +30.416506 
1488855204.215810, 1488855204.215810, -1.192749, +0.280151, -0.167725, -38.989529, -59.405941, +30.416506 
1488855204.219691, 1488855204.219691, -1.192749, +0.280151, -0.167725, -43.216213, -62.503475, +27.273195 
1488855204.223647, 1488855204.223647, -1.192749, +0.280151, -0.167725, -43.216213, -62.503475, +27.273195 
1488855204.227539, 1488855204.227539, -1.168335, +0.069580, -0.107666, -43.216213, -62.503475, +27.273195 
1488855204.231903, 1488855204.231903, -1.168335, +0.069580, -0.107666, -42.239651, -65.616264, +26.159304 
1488855204.235766, 1488855204.235766, -1.168335, +0.069580, -0.107666, -42.239651, -65.616264, +26.159304 
1488855204.239509, 1488855204.239509, -1.168335, +0.069580, -0.107666, -42.239651, -65.616264, +26.159304 
1488855204.243300, 1488855204.243300, -1.168335, +0.069580, -0.107666, -36.502346, -68.683281, +28.249758 
1488855204.247044, 1488855204.247044, -1.198730, +0.033569, -0.154175, -36.502346, -68.683281, +28.249758 
1488855204.250794, 1488855204.250794, -1.198730, +0.033569, -0.154175, -36.502346, -68.683281, +28.249758 
1488855204.254550, 1488855204.254550, -1.198730, +0.033569, -0.154175, -28.048979, -72.055473, +30.065554 
1488855204.258292, 1488855204.258292, -1.198730, +0.033569, -0.154175, -28.048979, -72.055473, +30.065554 
1488855204.262036, 1488855204.262036, -1.198730, +0.033569, -0.154175, -28.048979, -72.055473, +33.102055 
1488855204.265809, 1488855204.265809, -1.198730, +0.033569, -0.184204, -20.663725, -77.335014, +33.102055 
1488855204.269558, 1488855204.269558, -1.275757, +0.180054, -0.184204, -20.663725, -77.335014, +33.102055 
1488855204.273415, 1488855204.273415, -1.275757, +0.180054, -0.184204, -16.757475, -84.323540, +36.672611 
1488855204.277166, 1488855204.277166, -1.275757, +0.180054, -0.184204, -16.360746, -84.323540, +36.672611 
1488855204.280917, 1488855204.280917, -1.275757, +0.180054, -0.184204, -16.360746, -84.323540, +36.672611 
1488855204.284756, 1488855204.284756, -1.275757, +0.180054, -0.184204, -14.850126, -90.839043, +38.076420 
1488855204.288502, 1488855204.288502, -1.412964, +0.357544, -0.308105, -14.850126, -90.839043, +38.076420 
1488855204.292242, 1488855204.292242, -1.412964, +0.357544, -0.308105, -14.850126, -90.839043, +38.076420 
1488855204.295991, 1488855204.295991, -1.412964, +0.357544, -0.308105, -16.345488, -97.949638, +41.189213 
1488855204.299733, 1488855204.299733, -1.412964, +0.357544, -0.308105, -16.345488, -97.949638, +41.189213 
1488855204.303528, 1488855204.303528, -1.412964, +0.357544, -0.308105, -16.345488, -97.949638, +41.189213 
1488855204.307479, 1488855204.307479, -1.508423, +0.309570, -0.446167, -22.723661, -103.854790, +43.478031 
1488855204.311427, 1488855204.311427, -1.508423, +0.309570, -0.446167, -22.723661, -103.854790, +43.478031 
1488855204.315271, 1488855204.315271, -1.508423, +0.309570, -0.446167, -22.723661, -103.854790, +43.478031 
1488855204.319023, 1488855204.319023, -1.508423, +0.309570, -0.446167, -31.283842, -111.270561, +47.262211 
1488855204.322778, 1488855204.322778, -1.508423, +0.309570, -0.446167, -31.283842, -111.270561, +47.262211 
1488855204.326751, 1488855204.326751, -1.676270, -0.001343, -0.254761, -31.283842, -111.270561, +47.262211 
1488855204.330710, 1488855204.330710, -1.676270, -0.001343, -0.254761, -37.372097, -122.348442, +50.695438 
1488855204.334706, 1488855204.334706, -1.676270, -0.001343, -0.254761, -37.372097, -122.348442, +50.695438 
1488855204.338652, 1488855204.338652, -1.676270, -0.001343, -0.254761, -33.465847, -132.571838, +54.098148 
1488855204.343100, 1488855204.343100, -1.676270, -0.001343, -0.254761, -34.411892, -132.571838, +54.098148 
1488855204.347052, 1488855204.347052, -1.726318, +0.140137, -0.358643, -34.411892, -132.571838, +54.098148 
1488855204.351005, 1488855204.351005, -1.726318, +0.140137, -0.358643, -33.191189, -140.140198, +59.682865 
1488855204.354962, 1488855204.354962, -1.726318, +0.140137, -0.358643, -33.191189, -140.140198, +59.682865 
1488855204.358908, 1488855204.358908, -1.726318, +0.140137, -0.358643, -33.191189, -140.140198, +59.682865 
1488855204.362855, 1488855204.362855, -1.726318, +0.140137, -0.358643, -43.750271, -147.403381, +62.566776 
1488855204.366746, 1488855204.366746, -1.733398, +0.072632, -0.640869, -43.750271, -147.403381, +62.566776 
1488855204.370504, 1488855204.370504, -1.733398, +0.072632, -0.640869, -43.750271, -147.403381, +62.566776 
1488855204.374292, 1488855204.374292, -1.733398, +0.072632, -0.640869, -55.774197, -151.950500, +61.498661 
1488855204.378043, 1488855204.378043, -1.733398, +0.072632, -0.640869, -55.774197, -151.950500, +61.498661 
1488855204.381793, 1488855204.381793, -1.733398, +0.072632, -0.640869, -55.774197, -151.950500, +64.306274 
1488855204.385601, 1488855204.385601, -1.733398, +0.371826, -0.863159, -68.377960, -159.991882, +64.306274 
1488855204.389352, 1488855204.389352, -2.153931, +0.371826, -0.863159, -68.377960, -159.991882, +64.306274 
1488855204.393187, 1488855204.393187, -2.153931, +0.371826, -0.863159, -84.002960, -170.337341, +71.264282 
1488855204.396958, 1488855204.396958, -2.153931, +0.371826, -0.863159, -85.940826, -170.337341, +71.264282 
1488855204.400713, 1488855204.400713, -2.153931, +0.371826, -0.863159, -85.940826, -170.337341, +71.264282 
1488855204.404623, 1488855204.404623, -2.153931, +0.371826, -1.706909, -108.569611, -172.534607, +73.873535 
1488855204.408565, 1488855204.408565, -1.906738, +0.076538, -1.688354, -108.569611, -172.534607, +73.873535 
1488855204.412508, 1488855204.412508, -1.906738, +0.076538, -1.688354, -108.569611, -172.534607, +73.873535 
1488855204.416330, 1488855204.416330, -1.906738, +0.076538, -1.688354, -129.077423, -168.475769, +71.981445 
1488855204.420085, 1488855204.420085, -1.906738, +0.076538, -1.688354, -129.077423, -168.475769, +71.981445 
1488855204.423942, 1488855204.423942, -1.906738, +0.076538, -1.688354, -129.077423, -168.475769, +71.981445 
1488855204.427883, 1488855204.427883, -2.175415, -0.135010, -1.253418, -143.298615, -168.353699, +69.585815 
1488855204.431646, 1488855204.431646, -2.175415, -0.135010, -1.253418, -143.298615, -168.353699, +69.585815 
1488855204.435648, 1488855204.435648, -2.175415, -0.135010, -1.253418, -143.298615, -168.353699, +69.585815 
1488855204.440128, 1488855204.440128, -2.175415, -0.135010, -1.253418, -159.381378, -170.825623, +60.750980 
1488855204.443910, 1488855204.443910, -2.175415, -0.135010, -1.253418, -159.381378, -170.825623, +60.750980 
1488855204.447660, 1488855204.447660, -2.176025, -0.295532, -0.633789, -159.381378, -174.884460, +49.078007 
1488855204.451409, 1488855204.451409, -2.176025, -0.295532, -0.633789, -176.166046, -174.884460, +49.078007 
1488855204.455199, 1488855204.455199, -2.176025, -0.295532, -0.633789, -176.166046, -174.884460, +49.078007 
1488855204.458944, 1488855204.458944, -2.176025, -0.295532, -0.633789, -194.369781, -177.768372, +36.962528 
1488855204.462681, 1488855204.462681, -2.176025, -0.295532, -0.633789, -194.369781, -177.768372, +36.962528 
1488855204.466431, 1488855204.466431, -1.888916, -0.042725, -0.373047, -194.369781, -177.768372, +36.962528 
1488855204.470178, 1488855204.470178, -1.888916, -0.042725, -0.373047, -212.176788, -173.144958, +30.416506 
1488855204.473947, 1488855204.473947, -1.888916, -0.042725, -0.373047, -212.176788, -173.144958, +30.416506 
1488855204.477706, 1488855204.477706, -1.888916, -0.042725, -0.373047, -212.176788, -173.144958, +30.416506 
1488855204.481450, 1488855204.481450, -1.888916, -0.042725, -0.373047, -214.389313, -161.197327, +30.935305 
1488855204.485349, 1488855204.485349, -1.513794, +0.118042, -0.224487, -214.389313, -161.197327, +30.935305 
1488855204.489098, 1488855204.489098, -1.513794, +0.118042, -0.224487, -214.389313, -161.197327, +30.935305 
1488855204.492856, 1488855204.492856, -1.513794, +0.118042, -0.224487, -155.429352, -145.984314, +32.018681 
1488855204.496885, 1488855204.496885, -1.513794, +0.118042, -0.224487, -155.429352, -145.984314, +32.018681 
1488855204.500842, 1488855204.500842, -1.513794, +0.118042, -0.224487, -155.429352, -145.984314, +32.018681 
1488855204.504795, 1488855204.504795, -1.513794, +0.282349, -0.242676, -32.809719, -132.022522, +41.936893 
1488855204.508746, 1488855204.508746, -0.805298, +0.282349, -0.242676, -32.809719, -132.022522, +41.936893 
1488855204.512810, 1488855204.512810, -0.805298, +0.282349, -0.242676, -32.809719, -116.397514, +43.401737 
1488855204.516584, 1488855204.516584, -0.805298, +0.282349, -0.242676, +44.216648, -114.734306, +43.401737 
1488855204.520337, 1488855204.520337, -0.805298, +0.282349, -0.242676, +44.216648, -114.734306, +43.401737 
1488855204.524149, 1488855204.524149, -0.805298, +0.282349, +1.329712, +63.030735, -112.918510, +32.674809 
1488855204.528102, 1488855204.528102, -0.782227, +0.480469, +1.329712, +63.030735, -112.918510, +32.674809 
1488855204.532053, 1488855204.532053, -0.782227, +0.480469, +1.329712, +63.030735, -112.918510, +32.674809 
1488855204.536021, 1488855204.536021, -0.782227, +0.480469, +1.329712, +89.169037, -103.000298, +21.062868 
1488855204.539971, 1488855204.539971, -0.782227, +0.480469, +1.329712, +89.169037, -103.000298, +21.062868 
1488855204.543928, 1488855204.543928, -0.782227, +0.480469, +0.380005, +89.169037, -103.000298, +21.062868 
1488855204.547880, 1488855204.547880, +0.026489, +0.052246, +0.380005, +113.766205, -46.359676, +1.287478 
1488855204.551945, 1488855204.551945, +0.026489, +0.052246, +0.380005, +113.766205, -46.359676, +1.287478 
1488855204.556109, 1488855204.556109, +0.026489, +0.052246, +0.380005, +113.766205, -46.359676, -9.317381 
1488855204.560061, 1488855204.560061, +0.026489, +0.052246, +0.380005, +114.147675, +1.049383, -9.317381 
1488855204.563965, 1488855204.563965, +0.026489, +0.052246, +0.031982, +114.147675, +1.049383, -9.317381 
1488855204.567719, 1488855204.567719, +0.036499, +0.053955, +0.031982, +125.591766, +28.194769, -10.339720 
1488855204.571472, 1488855204.571472, +0.036499, +0.053955, +0.031982, +125.591766, +28.194769, -10.339720 
1488855204.575356, 1488855204.575356, +0.036499, +0.053955, +0.031982, +125.591766, +28.194769, -10.339720 
1488855204.579303, 1488855204.579303, +0.036499, +0.053955, +0.031982, +134.609711, +60.116154, -18.030149 
1488855204.583287, 1488855204.583287, +0.036499, +0.053955, +0.031982, +134.609711, +60.116154, -18.030149 
1488855204.587040, 1488855204.587040, +0.229126, +0.239990, -0.416260, +134.609711, +60.116154, -18.030149 
1488855204.590798, 1488855204.590798, +0.229126, +0.239990, -0.416260, +125.652802, +95.943794, -30.908567 
1488855204.594614, 1488855204.594614, +0.229126, +0.239990, -0.416260, +125.652802, +95.943794, -30.908567 
1488855204.598372, 1488855204.598372, +0.229126, +0.239990, -0.416260, +125.652802, +95.943794, -30.908567 
1488855204.602127, 1488855204.602127, +0.229126, +0.239990, -0.416260, +100.536835, +127.712593, -42.047482 
1488855204.605920, 1488855204.605920, +0.099609, +0.448975, -0.458374, +100.536835, +127.712593, -42.047482 
1488855204.609682, 1488855204.609682, +0.099609, +0.448975, -0.458374, +100.536835, +127.712593, -42.047482 
1488855204.613573, 1488855204.613573, +0.099609, +0.448975, -0.458374, +62.496677, +150.188782, -57.519894 
1488855204.617328, 1488855204.617328, +0.099609, +0.448975, -0.458374, +62.496677, +150.188782, -57.519894 
1488855204.621082, 1488855204.621082, +0.099609, +0.448975, -0.458374, +62.496677, +150.188782, -77.051147 
1488855204.624994, 1488855204.624994, -0.103149, +0.319580, -0.258057, +18.398775, +161.556580, -75.387939 
1488855204.628897, 1488855204.628897, -0.103149, +0.319580, -0.258057, +18.398775, +161.556580, -75.387939 
1488855204.632882, 1488855204.632882, -0.103149, +0.319580, -0.258057, -16.757475, +171.032288, -90.250000 
1488855204.636782, 1488855204.636782, -0.103149, +0.319580, -0.258057, -14.682280, +171.032288, -90.250000 
1488855204.640670, 1488855204.640670, -0.103149, +0.319580, -0.258057, -14.682280, +171.032288, -90.250000 
1488855204.644698, 1488855204.644698, -0.089111, +0.070435, -0.065186, -26.050077, +182.827332, -99.176392 
1488855204.648592, 1488855204.648592, -0.089111, +0.070435, -0.065186, -26.050077, +182.827332, -99.176392 
1488855204.652521, 1488855204.652521, -0.089111, +0.070435, -0.065186, -26.050077, +182.827332, -99.176392 
1488855204.656515, 1488855204.656515, -0.089111, +0.070435, -0.065186, -20.846830, +193.706848, -104.745850 
1488855204.660576, 1488855204.660576, -0.089111, +0.070435, -0.065186, -20.846830, +193.706848, -104.745850 
1488855204.664477, 1488855204.664477, -0.014160, -0.016602, -0.108643, -20.846830, +193.706848, -104.745850 
1488855204.668226, 1488855204.668226, -0.014160, -0.016602, -0.108643, -9.311186, +205.730774, -109.186157 
1488855204.672129, 1488855204.672129, -0.014160, -0.016602, -0.108643, -9.311186, +205.730774, -109.186157 
1488855204.676348, 1488855204.676348, -0.014160, -0.016602, -0.108643, -9.311186, +221.935608, -112.771973 
1488855204.680290, 1488855204.680290, -0.014160, -0.016602, -0.108643, +1.934542, +221.935608, -112.771973 
1488855204.684284, 1488855204.684284, -0.127808, -0.085327, -0.346436, +1.934542, +221.935608, -112.771973 
1488855204.688231, 1488855204.688231, -0.127808, -0.085327, -0.346436, +9.487642, +239.498474, -116.800293 
1488855204.692178, 1488855204.692178, -0.127808, -0.085327, -0.346436, +9.487642, +239.498474, -116.800293 
1488855204.696134, 1488855204.696134, -0.127808, -0.085327, -0.346436, +9.487642, +239.498474, -116.800293 
1488855204.700085, 1488855204.700085, -0.127808, -0.085327, -0.346436, +12.005342, +254.528381, -123.147949 
1488855204.704027, 1488855204.704027, -0.369873, -0.171143, -0.399292, +12.005342, +254.528381, -123.147949 
1488855204.707781, 1488855204.707781, -0.369873, -0.171143, -0.399292, +12.005342, +254.528381, -123.147949 
1488855204.711529, 1488855204.711529, -0.369873, -0.171143, -0.399292, +11.837496, +266.018250, -129.251465 
1488855204.715291, 1488855204.715291, -0.369873, -0.171143, -0.399292, +11.837496, +266.018250, -129.251465 
1488855204.719044, 1488855204.719044, -0.369873, -0.171143, -0.399292, +11.837496, +266.018250, -129.251465 
1488855204.722801, 1488855204.722801, -0.369873, -0.139893, -0.353516, +12.508883, +276.546814, -131.647095 
1488855204.726687, 1488855204.726687, -0.538696, -0.155518, -0.353516, +12.508883, +276.546814, -131.647095 
1488855204.730439, 1488855204.730439, -0.538696, -0.155518, -0.353516, +12.508883, +276.546814, -130.823120 
1488855204.734397, 1488855204.734397, -0.538696, -0.155518, -0.353516, +15.575899, +289.394714, -130.823120 
1488855204.738343, 1488855204.738343, -0.538696, -0.155518, -0.353516, +15.575899, +289.394714, -130.823120 
1488855204.742285, 1488855204.742285, -0.538696, -0.155518, -0.353516, +16.827120, +304.775574, -128.503784 
1488855204.746237, 1488855204.746237, -0.790161, -0.013916, -0.365356, +16.827120, +304.775574, -128.503784 
1488855204.750185, 1488855204.750185, -0.790161, -0.013916, -0.365356, +16.827120, +304.775574, -128.503784 
1488855204.754151, 1488855204.754151, -0.790161, -0.013916, -0.365356, +22.839083, +320.232727, -123.193726 
1488855204.758095, 1488855204.758095, -0.790161, -0.013916, -0.365356, +22.839083, +320.232727, -123.193726 
1488855204.762052, 1488855204.762052, -0.790161, -0.013916, -0.365356, +22.839083, +320.232727, -123.193726 
1488855204.765866, 1488855204.765866, -1.136963, +0.219849, -0.569214, +34.267918, +339.870789, -116.479858 
1488855204.769623, 1488855204.769623, -1.136963, +0.219849, -0.569214, +34.267918, +339.870789, -116.479858 
1488855204.773403, 1488855204.773403, -1.136963, +0.219849, -0.569214, +34.267918, +339.870789, -116.479858 
1488855204.777359, 1488855204.777359, -1.136963, +0.219849, -0.569214, +52.883640, +365.276672, -106.210693 
1488855204.781308, 1488855204.781308, -1.136963, +0.219849, -0.569214, +52.883640, +365.276672, -106.210693 
1488855204.785304, 1488855204.785304, -1.820801, +0.166260, -0.716431, +52.883640, +384.167053, -97.070679 
1488855204.789483, 1488855204.789483, -1.820801, +0.166260, -0.716431, +79.586517, +384.167053, -97.070679 
1488855204.793890, 1488855204.793890, -1.820801, +0.166260, -0.716431, +79.586517, +384.167053, -97.070679 
1488855204.797845, 1488855204.797845, -1.820801, +0.166260, -0.716431, +107.174408, +393.047668, -91.028198 
1488855204.801797, 1488855204.801797, -1.820801, +0.166260, -0.716431, +107.174408, +393.047668, -91.028198 
1488855204.805752, 1488855204.805752, -2.944824, -0.140625, -0.526978, +107.174408, +393.047668, -91.028198 
1488855204.809803, 1488855204.809803, -2.944824, -0.140625, -0.526978, +128.201019, +394.344666, -83.276733 
1488855204.813736, 1488855204.813736, -2.944824, -0.140625, -0.526978, +128.201019, +394.344666, -83.276733 
1488855204.817498, 1488855204.817498, -2.944824, -0.140625, -0.526978, +128.201019, +394.344666, -76.547607 
1488855204.821244, 1488855204.821244, -2.944824, -0.140625, -0.526978, +128.704559, +381.298401, -76.547607 
1488855204.825039, 1488855204.825039, -3.661865, -0.040771, +0.137329, +128.704559, +381.298401, -76.547607 
1488855204.828795, 1488855204.828795, -3.661865, -0.040771, +0.137329, +128.704559, +350.048401, -76.715454 
1488855204.832547, 1488855204.832547, -3.661865, -0.040771, +0.137329, +127.148163, +350.231506, -76.715454 
1488855204.836354, 1488855204.836354, -3.661865, -0.040771, +0.137329, +127.148163, +350.231506, -76.715454 
1488855204.840109, 1488855204.840109, -3.661865, -0.040771, +0.137329, +140.224945, +304.424622, -86.801514 
1488855204.844502, 1488855204.844502, -3.399658, +0.156494, +0.338623, +140.224945, +304.424622, -86.801514 
1488855204.848250, 1488855204.848250, -3.399658, +0.156494, +0.338623, +140.224945, +304.424622, -86.801514 
1488855204.851993, 1488855204.851993, -3.399658, +0.156494, +0.338623, +165.050995, +246.044495, -99.512085 
1488855204.855787, 1488855204.855787, -3.399658, +0.156494, +0.338623, +165.050995, +246.044495, -99.512085 
1488855204.859531, 1488855204.859531, -3.399658, +0.156494, +0.338623, +165.050995, +246.044495, -99.512085 
1488855204.863310, 1488855204.863310, -2.909302, +1.868530, +0.974609, +197.811615, +187.450745, -88.815674 
1488855204.867047, 1488855204.867047, -2.909302, +1.868530, +0.974609, +197.811615, +187.450745, -88.815674 
1488855204.870798, 1488855204.870798, -2.909302, +1.868530, +0.974609, +197.811615, +187.450745, -88.815674 
1488855204.874552, 1488855204.874552, -2.909302, +1.868530, +0.974609, +216.793549, +127.758369, -49.142818 
1488855204.878294, 1488855204.878294, -2.909302, +1.868530, +0.974609, +216.793549, +127.758369, -49.142818 
1488855204.882035, 1488855204.882035, -2.909302, +1.977173, +2.510376, +216.793549, +127.758369, -49.142818 
1488855204.885792, 1488855204.885792, -2.421631, +1.977173, +2.510376, +198.971283, +28.606756, -10.644896 
1488855204.889538, 1488855204.889538, -2.421631, +1.977173, +2.510376, +198.971283, +28.606756, -10.644896 
1488855204.893411, 1488855204.893411, -2.421631, +1.977173, +2.510376, +198.971283, +28.606756, -10.644896 
1488855204.897159, 1488855204.897159, -2.421631, +1.977173, +2.510376, +121.181976, -24.509089, +28.097170 
1488855204.900902, 1488855204.900902, -2.421631, +1.977173, +2.510376, +121.181976, -24.509089, +28.097170 
1488855204.904839, 1488855204.904839, -1.906616, +1.020874, +0.538696, +121.181976, -24.509089, +89.803711 
1488855204.908571, 1488855204.908571, -1.906616, +1.020874, +0.538696, +26.882662, -39.600033, +89.803711 
1488855204.912310, 1488855204.912310, -1.906616, +1.020874, +0.538696, +26.882662, -39.600033, +89.803711 
1488855204.916070, 1488855204.916070, -1.906616, +1.020874, +0.538696, +26.882662, -82.889214, +116.048828 
1488855204.919824, 1488855204.919824, -1.906616, +1.020874, +0.538696, +9.319796, -82.889214, +116.048828 
1488855204.923605, 1488855204.923605, -0.988647, -0.359741, -1.193237, +9.319796, -82.889214, +116.048828 
1488855204.927548, 1488855204.927548, -0.988647, -0.359741, -1.193237, +47.314182, -121.005669, +95.312134 
1488855204.931492, 1488855204.931492, -0.988647, -0.359741, -1.193237, +47.314182, -121.005669, +95.312134 
1488855204.935491, 1488855204.935491, -0.988647, -0.359741, -1.193237, +47.314182, -121.005669, +95.312134 
1488855204.939441, 1488855204.939441, -0.988647, -0.359741, -1.193237, +24.548067, -82.507744, +36.245365 
1488855204.943393, 1488855204.943393, -0.767456, -0.674683, -1.889404, +24.548067, -82.507744, +36.245365 
1488855204.947339, 1488855204.947339, -0.767456, -0.674683, -1.889404, +24.548067, -82.507744, +36.245365 
1488855204.951384, 1488855204.951384, -0.767456, -0.674683, -1.889404, +0.500216, -47.565121, +24.496096 
1488855204.955347, 1488855204.955347, -0.767456, -0.674683, -1.889404, +0.500216, -47.565121, +24.496096 
1488855204.959479, 1488855204.959479, -0.767456, -0.674683, -1.889404, +0.500216, -92.380180, +39.434452 
1488855204.963860, 1488855204.963860, -2.793335, +0.897217, +1.556030, -48.877224, -92.380180, +39.434452 
1488855204.967617, 1488855204.967617, -2.793335, +0.897217, +1.556030, -48.877224, -92.380180, +39.434452 
1488855204.971361, 1488855204.971361, -2.793335, +0.897217, +1.556030, -111.896027, -181.018494, +36.825199 
1488855204.975234, 1488855204.975234, -2.793335, +0.897217, +1.556030, -111.896027, -181.018494, +36.825199 
1488855204.979184, 1488855204.979184, -2.793335, +0.897217, +1.556030, -111.896027, -181.018494, +36.825199 
1488855204.983135, 1488855204.983135, -1.677490, +0.554443, -1.246338, -111.102570, -178.180359, +32.171268 
1488855204.987091, 1488855204.987091, -1.677490, +0.554443, -1.246338, -111.102570, -178.180359, +32.171268 
1488855204.991035, 1488855204.991035, -1.677490, +0.554443, -1.246338, -111.102570, -178.180359, +32.171268 
1488855204.994904, 1488855204.994904, -1.677490, +0.554443, -1.246338, -99.734772, -111.697807, +59.469242 
1488855204.998658, 1488855204.998658, -1.677490, +0.554443, -1.246338, -99.734772, -111.697807, +59.469242 
1488855205.002399, 1488855205.002399, -2.209473, +0.137329, -0.063477, -99.734772, -111.697807, +59.469242 
1488855205.006186, 1488855205.006186, -2.209473, +0.137329, -0.063477, -71.551788, -102.573051, +107.381836 
1488855205.009933, 1488855205.009933, -2.209473, +0.137329, -0.063477, -71.551788, -102.573051, +107.381836 
1488855205.013802, 1488855205.013802, -2.209473, +0.137329, -0.063477, -71.551788, -102.573051, +96.395508 
1488855205.017551, 1488855205.017551, -2.209473, +0.137329, -0.063477, -22.159086, -131.976746, +96.395508 
1488855205.021308, 1488855205.021308, -1.021973, -0.489990, +0.142944, -22.159086, -131.976746, +96.395508 
1488855205.025185, 1488855205.025185, -1.020386, -0.489990, +0.142944, -6.534086, -119.525566, +68.487183 
1488855205.029109, 1488855205.029109, -1.020386, -0.489990, +0.142944, -8.166777, -119.525566, +68.487183 
1488855205.033038, 1488855205.033038, -1.020386, -0.489990, +0.142944, -8.166777, -119.525566, +68.487183 
1488855205.036952, 1488855205.036952, -1.020386, -0.489990, +0.142944, -4.336820, -97.156181, +84.981934 
1488855205.040869, 1488855205.040869, -1.020386, -0.123657, +0.277466, -4.336820, -97.156181, +84.981934 
1488855205.044798, 1488855205.044798, -0.892090, -0.123657, +0.277466, -4.336820, -97.156181, +84.981934 
1488855205.048714, 1488855205.048714, -0.892090, -0.123657, +0.277466, +27.523531, -95.554008, +88.445679 
1488855205.052637, 1488855205.052637, -0.892090, -0.123657, +0.277466, +27.523531, -95.554008, +88.445679 
1488855205.056574, 1488855205.056574, -0.892090, -0.123657, +0.277466, +27.523531, -95.554008, +88.445679 
1488855205.060499, 1488855205.060499, -0.892090, +0.407593, -0.423340, +92.937958, -82.812920, +73.247925 
1488855205.064466, 1488855205.064466, -0.579102, +0.427002, -0.423340, +92.937958, -82.812920, +73.247925 
1488855205.068389, 1488855205.068389, -0.579102, +0.427002, -0.423340, +92.937958, -59.375423, +69.707886 
1488855205.072321, 1488855205.072321, -0.579102, +0.427002, -0.423340, +119.991791, -61.267513, +69.707886 
1488855205.076320, 1488855205.076320, -0.579102, +0.427002, -0.423340, +119.991791, -61.267513, +69.707886 
1488855205.080391, 1488855205.080391, -0.579102, +0.583252, -0.320190, +91.000092, -66.424980, +66.747681 
1488855205.084582, 1488855205.084582, -1.420776, +0.573364, -0.320190, +91.000092, -66.424980, +66.747681 
1488855205.088532, 1488855205.088532, -1.420776, +0.573364, -0.320190, +91.000092, -66.424980, +66.747681 
1488855205.092482, 1488855205.092482, -1.420776, +0.573364, -0.320190, +46.871677, -70.209160, +46.484013 
1488855205.096436, 1488855205.096436, -1.420776, +0.573364, -0.320190, +46.871677, -70.209160, +46.484013 
1488855205.100383, 1488855205.100383, -1.420776, +0.118530, -0.332153, +46.871677, -70.209160, +30.859011 
1488855205.104481, 1488855205.104481, -1.152832, +0.118530, -0.332153, +25.936617, -61.618465, +34.307499 
1488855205.108420, 1488855205.108420, -1.152832, +0.118530, -0.332153, +25.936617, -61.618465, +34.307499 
1488855205.112367, 1488855205.112367, -1.152832, +0.118530, -0.332153, +24.532808, -40.210384, +28.539675 
1488855205.116160, 1488855205.116160, -1.152832, +0.118530, -0.332153, +24.532808, -40.210384, +28.539675 
1488855205.119911, 1488855205.119911, -1.152832, +0.118530, -0.498657, +24.532808, -40.210384, +28.539675 
1488855205.123703, 1488855205.123703, -0.940308, +0.449951, -0.498657, +26.134981, -28.079645, +24.633425 
1488855205.127456, 1488855205.127456, -0.940308, +0.449951, -0.498657, +26.134981, -28.079645, +24.633425 
1488855205.131210, 1488855205.131210, -0.940308, +0.449951, -0.498657, +26.134981, -28.079645, +24.633425 
1488855205.135118, 1488855205.135118, -0.940308, +0.449951, -0.498657, +15.484346, -24.051325, +13.265627 
1488855205.138871, 1488855205.138871, -0.940308, +0.449951, -0.498657, +15.484346, -24.051325, +13.265627 
1488855205.142623, 1488855205.142623, -1.119873, +0.347290, -0.297485, +15.484346, -24.051325, +13.265627 
1488855205.146639, 1488855205.146639, -1.119873, +0.347290, -0.297485, -7.373319, -25.134699, -2.435667 
1488855205.150583, 1488855205.150583, -1.119873, +0.347290, -0.297485, -7.373319, -25.134699, -2.435667 
1488855205.154533, 1488855205.154533, -1.119873, +0.347290, -0.297485, -7.373319, -25.134699, -2.435667 
1488855205.158471, 1488855205.158471, -1.119873, +0.347290, -0.297485, -13.492094, -22.555964, -11.636717 
1488855205.162414, 1488855205.162414, -1.213989, +0.083740, -0.243530, -13.492094, -22.555964, -11.636717 
1488855205.166203, 1488855205.166203, -1.213989, +0.083740, -0.243530, -13.492094, -22.555964, -13.254148 
1488855205.169948, 1488855205.169948, -1.213989, +0.083740, -0.243530, -11.935698, -20.251886, -13.254148 
1488855205.173739, 1488855205.173739, -1.213989, +0.083740, -0.243530, -11.935698, -20.251886, -13.254148 
1488855205.177683, 1488855205.177683, -1.213989, +0.083740, -0.243530, -11.935698, -15.002863, -10.553343 
1488855205.181624, 1488855205.181624, -1.340332, +0.013428, -0.443115, -11.584745, -15.002863, -10.553343 
1488855205.185586, 1488855205.185586, -1.340332, +0.013428, -0.443115, -11.584745, -15.002863, -10.553343 
1488855205.189534, 1488855205.189534, -1.340332, +0.013428, -0.443115, -12.195097, -18.695490, -1.382810 
1488855205.193489, 1488855205.193489, -1.340332, +0.013428, -0.443115, -12.195097, -18.695490, -1.382810 
1488855205.197436, 1488855205.197436, -1.340332, +0.013428, -0.443115, -12.195097, -18.695490, -1.382810 
1488855205.201540, 1488855205.201540, -0.997070, -0.072266, -0.660156, -15.597807, -28.094904, +5.804080 
1488855205.205899, 1488855205.205899, -0.997070, -0.072266, -0.660156, -15.597807, -28.094904, +5.804080 
1488855205.209849, 1488855205.209849, -0.997070, -0.072266, -0.660156, -15.597807, -39.813656, +14.364260 
1488855205.213769, 1488855205.213769, -0.997070, -0.072266, -0.660156, -11.035429, -39.432186, +14.364260 
1488855205.217522, 1488855205.217522, -0.997070, -0.072266, -0.660156, -11.035429, -39.432186, +14.364260 
1488855205.221272, 1488855205.221272, -0.784668, +0.184814, -0.620483, -11.035429, -49.243587, +21.108644 
1488855205.225149, 1488855205.225149, -0.784668, +0.184814, -0.620483, -9.555326, -49.243587, +21.108644 
1488855205.229095, 1488855205.229095, -0.784668, +0.184814, -0.620483, -9.555326, -49.243587, +21.108644 
1488855205.233050, 1488855205.233050, -0.784668, +0.184814, -0.620483, -21.167265, -60.763973, +25.320070 
1488855205.236796, 1488855205.236796, -0.784668, +0.184814, -0.620483, -21.167265, -60.763973, +25.320070 
1488855205.240546, 1488855205.240546, -1.001831, +0.287842, -0.434326, -21.167265, -60.763973, +25.320070 
1488855205.244308, 1488855205.244308, -1.001831, +0.287842, -0.434326, -32.489285, -69.125786, +27.685183 
1488855205.248060, 1488855205.248060, -1.001831, +0.287842, -0.434326, -32.489285, -69.125786, +27.685183 
1488855205.251914, 1488855205.251914, -1.001831, +0.287842, -0.434326, -32.489285, -69.125786, +27.685183 
1488855205.255760, 1488855205.255760, -1.001831, +0.287842, -0.434326, -38.516506, -72.299614, +27.715700 
1488855205.259516, 1488855205.259516, -1.001831, +0.208008, -0.330566, -38.516506, -72.299614, +27.715700 
1488855205.263403, 1488855205.263403, -1.147705, +0.208008, -0.330566, -38.516506, -72.299614, +27.715700 
1488855205.267157, 1488855205.267157, -1.147705, +0.208008, -0.330566, -37.494167, -68.256035, +26.922243 
1488855205.270909, 1488855205.270909, -1.147705, +0.208008, -0.330566, -37.494167, -68.256035, +26.922243 
1488855205.274754, 1488855205.274754, -1.147705, +0.208008, -0.330566, -37.494167, -68.256035, +26.922243 
1488855205.278705, 1488855205.278705, -1.147705, +0.208008, -0.121460, -36.685452, -62.228817, +24.694460 
1488855205.282656, 1488855205.282656, -1.248779, +0.263428, -0.121460, -36.685452, -62.228817, +24.694460 
1488855205.286611, 1488855205.286611, -1.248779, +0.263428, -0.121460, -44.497952, -58.017391, +19.491213 
1488855205.290560, 1488855205.290560, -1.248779, +0.263428, -0.121460, -41.171535, -58.017391, +19.491213 
1488855205.294456, 1488855205.294456, -1.248779, +0.263428, -0.121460, -41.171535, -58.017391, +19.491213 
1488855205.298205, 1488855205.298205, -1.248779, +0.263428, -0.121460, -43.277248, -55.026669, +16.027468 
1488855205.301961, 1488855205.301961, -1.111694, +0.198486, -0.072510, -43.277248, -55.026669, +16.027468 
1488855205.305916, 1488855205.305916, -1.111694, +0.198486, -0.072510, -43.277248, -55.026669, +16.027468 
1488855205.309860, 1488855205.309860, -1.111694, +0.198486, -0.072510, -41.827663, -53.348202, +14.547365 
1488855205.313779, 1488855205.313779, -1.111694, +0.198486, -0.072510, -41.827663, -53.348202, +14.547365 
1488855205.317536, 1488855205.317536, -1.111694, +0.198486, -0.072510, -41.827663, -53.348202, +14.547365 
1488855205.321570, 1488855205.321570, -1.033813, +0.107666, -0.098999, -36.609158, -52.859921, +15.752810 
1488855205.325897, 1488855205.325897, -1.033813, +0.107666, -0.098999, -36.609158, -52.859921, +15.752810 
1488855205.329849, 1488855205.329849, -1.033813, +0.107666, -0.098999, -36.609158, -52.859921, +18.301027 
1488855205.333799, 1488855205.333799, -1.033813, +0.107666, -0.098999, -28.613554, -53.790707, +18.301027 
1488855205.337745, 1488855205.337745, -1.033813, +0.107666, -0.098999, -28.613554, -53.790707, +18.301027 
1488855205.341692, 1488855205.341692, -1.079712, +0.091064, -0.140991, -22.403227, -56.949276, +21.337526 
1488855205.345681, 1488855205.345681, -1.079712, +0.091064, -0.140991, -22.403227, -56.949276, +21.337526 
1488855205.349624, 1488855205.349624, -1.079712, +0.091064, -0.140991, -22.403227, -56.949276, +21.337526 
1488855205.353569, 1488855205.353569, -1.079712, +0.091064, -0.140991, -16.665922, -62.045712, +26.586550 
1488855205.357325, 1488855205.357325, -1.079712, +0.091064, -0.140991, -16.665922, -62.045712, +26.586550 
1488855205.361078, 1488855205.361078, -1.068115, +0.148071, -0.379761, -16.665922, -62.045712, +26.586550 
1488855205.364849, 1488855205.364849, -1.068115, +0.148071, -0.379761, -16.650663, -64.120903, +28.478640 
1488855205.368602, 1488855205.368602, -1.068115, +0.148071, -0.379761, -16.650663, -64.120903, +28.478640 
1488855205.372357, 1488855205.372357, -1.068115, +0.148071, -0.379761, -16.650663, -64.120903, +28.478640 
1488855205.376278, 1488855205.376278, -1.068115, +0.148071, -0.379761, -17.474638, -66.135063, +31.682985 
1488855205.380029, 1488855205.380029, -1.155762, +0.247681, -0.352173, -17.474638, -66.135063, +31.682985 
1488855205.383982, 1488855205.383982, -1.155762, +0.247681, -0.352173, -17.474638, -66.135063, +33.056278 
1488855205.387930, 1488855205.387930, -1.155762, +0.247681, -0.352173, -24.142729, -69.934502, +33.056278 
1488855205.391876, 1488855205.391876, -1.155762, +0.247681, -0.352173, -24.142729, -69.934502, +33.056278 
1488855205.395830, 1488855205.395830, -1.155762, +0.247681, -0.352173, -28.720366, -74.924126, +34.032841 
1488855205.399893, 1488855205.399893, -1.276855, +0.273193, -0.285034, -28.720366, -74.924126, +34.032841 
1488855205.403847, 1488855205.403847, -1.276855, +0.273193, -0.285034, -28.720366, -74.924126, +34.032841 
1488855205.407594, 1488855205.407594, -1.276855, +0.273193, -0.285034, -30.429350, -79.639091, +35.696049 
1488855205.411353, 1488855205.411353, -1.276855, +0.273193, -0.285034, -30.429350, -79.639091, +35.696049 
1488855205.415213, 1488855205.415213, -1.276855, +0.273193, -0.285034, -30.429350, -79.639091, +35.696049 
1488855205.419136, 1488855205.419136, -1.397217, +0.208618, -0.282471, -31.268583, -85.284843, +37.679691 
1488855205.423065, 1488855205.423065, -1.397217, +0.208618, -0.282471, -31.268583, -85.284843, +37.679691 
1488855205.426861, 1488855205.426861, -1.397217, +0.208618, -0.282471, -31.268583, -85.284843, +37.679691 
1488855205.430605, 1488855205.430605, -1.397217, +0.208618, -0.282471, -30.444609, -91.128960, +40.258427 
1488855205.434412, 1488855205.434412, -1.397217, +0.208618, -0.282471, -30.444609, -91.128960, +40.258427 
1488855205.438359, 1488855205.438359, -1.522217, +0.083740, -0.193115, -30.444609, -91.128960, +43.645878 
1488855205.442384, 1488855205.442384, -1.512085, +0.083740, -0.193115, -28.064238, -97.186699, +43.645878 
1488855205.446492, 1488855205.446492, -1.512085, +0.083740, -0.193115, -28.064238, -97.186699, +43.645878 
1488855205.450441, 1488855205.450441, -1.512085, +0.083740, -0.193115, -26.660429, -104.800835, +46.392460 
1488855205.454335, 1488855205.454335, -1.512085, +0.083740, -0.193115, -26.660429, -104.800835, +46.392460 
1488855205.458086, 1488855205.458086, -1.512085, -0.007690, -0.149902, -26.660429, -104.800835, +46.392460 
1488855205.461836, 1488855205.461836, -1.544800, -0.007690, -0.149902, -22.403227, -114.078178, +48.894901 
1488855205.465762, 1488855205.465762, -1.544800, -0.007690, -0.149902, -22.403227, -114.078178, +48.894901 
1488855205.469714, 1488855205.469714, -1.544800, -0.007690, -0.149902, -22.403227, -114.078178, +48.894901 
1488855205.473648, 1488855205.473648, -1.544800, -0.007690, -0.149902, -19.214140, -122.363701, +52.068729 
1488855205.477399, 1488855205.477399, -1.544800, -0.007690, -0.365723, -19.214140, -122.363701, +52.068729 
1488855205.481151, 1488855205.481151, -1.692383, +0.255615, -0.365723, -19.214140, -122.363701, +52.068729 
1488855205.484908, 1488855205.484908, -1.692383, +0.255615, -0.365723, -22.220121, -129.352234, +56.768436 
1488855205.488652, 1488855205.488652, -1.692383, +0.255615, -0.365723, -22.220121, -129.352234, +56.768436 
1488855205.492407, 1488855205.492407, -1.692383, +0.255615, -0.365723, -22.220121, -129.352234, +56.768436 
1488855205.496304, 1488855205.496304, -1.692383, +0.255615, -0.365723, -36.914333, -136.508606, +60.506840 
1488855205.500053, 1488855205.500053, -1.823486, +0.218872, -0.522217, -36.914333, -136.508606, +60.506840 
1488855205.503993, 1488855205.503993, -1.823486, +0.218872, -0.522217, -36.914333, -148.227356, +58.813114 
1488855205.507983, 1488855205.507983, -1.823486, +0.218872, -0.522217, -61.435207, -146.701477, +58.813114 
1488855205.511736, 1488855205.511736, -1.823486, +0.218872, -0.522217, -61.435207, -146.701477, +58.813114 
1488855205.515610, 1488855205.515610, -1.823486, +0.218872, -0.522217, -80.844391, -160.190247, +56.890507 
1488855205.519533, 1488855205.519533, -2.085449, -0.008423, -0.707397, -80.844391, -160.190247, +56.890507 
1488855205.523460, 1488855205.523460, -2.085449, -0.008423, -0.707397, -80.844391, -160.190247, +56.890507 
1488855205.527351, 1488855205.527351, -2.085449, -0.008423, -0.707397, -87.161530, -173.740051, +61.269779 
1488855205.531239, 1488855205.531239, -2.085449, -0.008423, -0.707397, -87.161530, -173.740051, +61.269779 
1488855205.535312, 1488855205.535312, -2.085449, -0.008423, -0.707397, -87.161530, -173.740051, +61.269779 
1488855205.539270, 1488855205.539270, -2.212891, -0.220703, -1.118652, -92.944611, -181.293152, +66.411987 
1488855205.543263, 1488855205.543263, -2.212891, -0.220703, -1.118652, -92.944611, -181.293152, +66.411987 
1488855205.547323, 1488855205.547323, -2.212891, -0.220703, -1.118652, -92.944611, -181.293152, +67.159668 
1488855205.551275, 1488855205.551275, -2.212891, -0.220703, -1.118652, -110.705841, -188.617371, +67.159668 
1488855205.555118, 1488855205.555118, -2.212891, -0.220703, -1.118652, -110.705841, -188.617371, +67.159668 
1488855205.558873, 1488855205.558873, -2.091064, -0.578125, -1.178223, -117.358673, -193.591736, +71.187988 
1488855205.562817, 1488855205.562817, -2.091064, -0.578125, -1.178223, -117.358673, -193.591736, +71.187988 
1488855205.566971, 1488855205.566971, -2.091064, -0.578125, -1.178223, -117.358673, -193.591736, +71.187988 
1488855205.570921, 1488855205.570921, -2.091064, -0.578125, -1.178223, -109.561432, -188.876770, +73.995605 
1488855205.574915, 1488855205.574915, -2.091064, -0.578125, -1.178223, -109.561432, -188.876770, +73.995605 
1488855205.578863, 1488855205.578863, -1.839966, -0.504150, -0.974609, -109.561432, -188.876770, +73.995605 
1488855205.582818, 1488855205.582818, -1.839966, -0.504150, -0.974609, -88.901031, -182.666443, +76.345459 
1488855205.586771, 1488855205.586771, -1.839966, -0.504150, -0.974609, -88.901031, -182.666443, +76.345459 
1488855205.590722, 1488855205.590722, -1.839966, -0.504150, -0.974609, -88.901031, -182.666443, +76.345459 
1488855205.594602, 1488855205.594602, -1.839966, -0.504150, -0.974609, -82.522858, -187.991760, +74.453369 
1488855205.598355, 1488855205.598355, -2.170166, +0.357300, -0.625366, -82.522858, -187.991760, +74.453369 
1488855205.602113, 1488855205.602113, -2.170166, +0.357300, -0.625366, -82.522858, -184.085510, +69.387451 
1488855205.605869, 1488855205.605869, -2.170166, +0.357300, -0.625366, -102.038849, -185.840271, +69.387451 
1488855205.609616, 1488855205.609616, -2.170166, +0.357300, -0.625366, -102.038849, -185.840271, +69.387451 
1488855205.613561, 1488855205.613561, -2.170166, +0.357300, -0.625366, -119.845856, -172.748230, +63.024540 
1488855205.617376, 1488855205.617376, -1.968384, +0.606689, -0.583984, -119.845856, -172.748230, +63.024540 
1488855205.621116, 1488855205.621116, -1.968384, +0.606689, -0.583984, -119.845856, -172.748230, +63.024540 
1488855205.624982, 1488855205.624982, -1.968384, +0.606689, -0.583984, -110.858429, -153.247498, +59.499760 
1488855205.628733, 1488855205.628733, -1.968384, +0.606689, -0.583984, -110.858429, -153.247498, +59.499760 
1488855205.632477, 1488855205.632477, -1.968384, +0.606689, -0.583984, -110.858429, -153.247498, +59.499760 
1488855205.636238, 1488855205.636238, -1.968384, +0.606689, -0.032349, -81.393707, -137.042664, +49.840946 
1488855205.639983, 1488855205.639983, -1.449707, +0.598022, -0.032349, -81.393707, -137.042664, +49.840946 
1488855205.643741, 1488855205.643741, -1.449707, +0.598022, -0.032349, -81.393707, -137.042664, +49.840946 
1488855205.647490, 1488855205.647490, -1.449707, +0.598022, -0.032349, -22.723661, -132.785461, +45.797367 
1488855205.651245, 1488855205.651245, -1.449707, +0.598022, -0.032349, -22.723661, -132.785461, +45.797367 
1488855205.655040, 1488855205.655040, -1.449707, +0.598022, -0.032349, -22.723661, -132.785461, +45.797367 
1488855205.658802, 1488855205.658802, -0.444092, +0.845947, +0.762939, +24.929537, -114.459648, +42.196293 
1488855205.662558, 1488855205.662558, -0.444092, +0.845947, +0.762939, +24.929537, -114.459648, +42.196293 
1488855205.666555, 1488855205.666555, -0.444092, +0.845947, +0.762939, +24.929537, -114.459648, +42.196293 
1488855205.670509, 1488855205.670509, -0.444092, +0.845947, +0.762939, +59.399143, -109.592094, +46.178837 
1488855205.674566, 1488855205.674566, -0.444092, +0.845947, +0.762939, +59.399143, -109.592094, +46.178837 
1488855205.678477, 1488855205.678477, -0.109253, +0.000488, -0.304199, +106.274139, -71.490898, +31.713503 
1488855205.683018, 1488855205.683018, -0.109253, +0.000488, -0.304199, +104.092133, -71.490898, +31.713503 
1488855205.686971, 1488855205.686971, -0.109253, +0.000488, -0.304199, +104.092133, -71.490898, +31.713503 
1488855205.690931, 1488855205.690931, -0.109253, +0.000488, -0.304199, +114.132416, -12.790339, +4.461306 
1488855205.695014, 1488855205.695014, -0.109253, +0.000488, -0.304199, +114.132416, -12.790339, +4.461306 
1488855205.698971, 1488855205.698971, +0.136597, +0.170776, -0.452271, +114.132416, -12.790339, +4.461306 
1488855205.702918, 1488855205.702918, +0.136597, +0.170776, -0.452271, +115.185272, +25.509222, -6.845457 
1488855205.706734, 1488855205.706734, +0.136597, +0.170776, -0.452271, +115.185272, +25.509222, -6.845457 
1488855205.710485, 1488855205.710485, +0.136597, +0.170776, -0.452271, +115.185272, +25.509222, -6.845457 
1488855205.714265, 1488855205.714265, +0.136597, +0.170776, -0.452271, +101.955902, +48.351627, -22.256834 
1488855205.718033, 1488855205.718033, +0.093140, +0.350220, -0.083252, +101.955902, +48.351627, -22.256834 
1488855205.721787, 1488855205.721787, +0.093140, +0.350220, -0.083252, +101.955902, +48.351627, -46.762447 
1488855205.725754, 1488855205.725754, +0.093140, +0.350220, -0.083252, +67.272675, +64.052925, -46.762447 
1488855205.729516, 1488855205.729516, +0.093140, +0.350220, -0.083252, +67.272675, +64.052925, -46.762447 
1488855205.733413, 1488855205.733413, +0.093140, +0.350220, -0.083252, +25.890841, +83.462105, -71.863159 
1488855205.737364, 1488855205.737364, +0.155518, +0.320923, -0.123169, +25.890841, +83.462105, -71.863159 
1488855205.741321, 1488855205.741321, +0.155518, +0.320923, -0.123169, +25.890841, +83.462105, -71.863159 
1488855205.745317, 1488855205.745317, +0.155518, +0.320923, -0.123169, -6.961332, +106.640205, -90.646729 
1488855205.749263, 1488855205.749263, +0.155518, +0.320923, -0.123169, -6.961332, +106.640205, -90.646729 
1488855205.753253, 1488855205.753253, +0.155518, +0.320923, -0.123169, -6.961332, +106.640205, -90.646729 
1488855205.757004, 1488855205.757004, +0.056885, +0.122314, -0.103271, -20.984159, +129.925110, -103.921875 
1488855205.760763, 1488855205.760763, +0.056885, +0.122314, -0.103271, -20.984159, +129.925110, -103.921875 
1488855205.764606, 1488855205.764606, +0.056885, +0.122314, -0.103271, -20.984159, +129.925110, -103.921875 
1488855205.768563, 1488855205.768563, +0.056885, +0.122314, -0.103271, -17.367826, +149.532654, -112.985596 
1488855205.772519, 1488855205.772519, +0.056885, +0.122314, -0.103271, -17.367826, +149.532654, -112.985596 
1488855205.776509, 1488855205.776509, -0.019897, -0.057861, -0.087646, -17.367826, +165.157654, -118.936523 
1488855205.780460, 1488855205.780460, -0.019897, -0.057861, -0.087646, -3.772245, +165.554382, -118.936523 
1488855205.784420, 1488855205.784420, -0.019897, -0.057861, -0.087646, -3.772245, +165.554382, -118.936523 
1488855205.788378, 1488855205.788378, -0.019897, -0.057861, -0.087646, +14.416231, +182.537415, -123.331055 
1488855205.792503, 1488855205.792503, -0.019897, -0.057861, -0.087646, +14.416231, +182.537415, -123.331055 
1488855205.796897, 1488855205.796897, -0.129028, -0.173462, -0.224609, +14.416231, +182.537415, -123.331055 
1488855205.800847, 1488855205.800847, -0.129028, -0.173462, -0.224609, +32.909885, +199.795105, -128.335938 
1488855205.804722, 1488855205.804722, -0.129028, -0.173462, -0.224609, +32.909885, +199.795105, -128.335938 
1488855205.808477, 1488855205.808477, -0.129028, -0.173462, -0.224609, +32.909885, +199.795105, -128.335938 
1488855205.812234, 1488855205.812234, -0.129028, -0.173462, -0.224609, +47.955051, +216.122009, -132.852539 
1488855205.816000, 1488855205.816000, -0.305664, -0.091675, -0.355713, +47.955051, +216.122009, -132.852539 
1488855205.819752, 1488855205.819752, -0.305664, -0.091675, -0.355713, +47.955051, +216.122009, -136.728271 
1488855205.823528, 1488855205.823528, -0.305664, -0.091675, -0.355713, +57.446018, +231.930115, -136.728271 
1488855205.827413, 1488855205.827413, -0.305664, -0.091675, -0.355713, +57.446018, +231.930115, -136.728271 
1488855205.831172, 1488855205.831172, -0.305664, -0.091675, -0.355713, +57.446018, +245.861389, -139.841064 
1488855205.834939, 1488855205.834939, -0.305664, -0.091675, -0.389160, +61.413303, +245.861389, -139.841064 
1488855205.838698, 1488855205.838698, -0.521606, -0.008911, -0.389160, +61.413303, +245.861389, -139.841064 
1488855205.842568, 1488855205.842568, -0.521606, -0.008911, -0.389160, +62.252537, +258.114197, -141.992554 
1488855205.846480, 1488855205.846480, -0.521606, -0.008911, -0.389160, +62.252537, +258.114197, -141.992554 
1488855205.850239, 1488855205.850239, -0.521606, -0.008911, -0.389160, +62.252537, +258.114197, -141.992554 
1488855205.854155, 1488855205.854155, -0.521606, -0.008911, -0.389160, +63.488499, +270.672180, -144.525513 
1488855205.857916, 1488855205.857916, -0.724976, +0.008301, -0.436035, +63.488499, +270.672180, -144.525513 
1488855205.861678, 1488855205.861678, -0.724976, +0.008301, -0.436035, +63.488499, +270.672180, -144.525513 
1488855205.865591, 1488855205.865591, -0.724976, +0.008301, -0.436035, +61.550632, +284.572937, -148.233398 
1488855205.869551, 1488855205.869551, -0.724976, +0.008301, -0.436035, +61.550632, +284.572937, -148.233398 
1488855205.873503, 1488855205.873503, -0.724976, +0.008301, -0.436035, +61.550632, +284.572937, -148.233398 
1488855205.877460, 1488855205.877460, -1.008179, +0.001343, -0.473267, +60.955540, +298.427917, -150.659546 
1488855205.881407, 1488855205.881407, -1.008179, +0.001343, -0.473267, +60.955540, +298.427917, -150.659546 
1488855205.885377, 1488855205.885377, -1.008179, +0.001343, -0.473267, +60.955540, +314.052917, -152.185425 
1488855205.889331, 1488855205.889331, -1.008179, +0.001343, -0.473267, +63.732639, +315.761902, -152.185425 
1488855205.893290, 1488855205.893290, -1.008179, +0.001343, -0.473267, +63.732639, +315.761902, -152.185425 
1488855205.897238, 1488855205.897238, -1.421631, +0.016113, -0.548096, +71.621429, +334.545471, -150.445923 
1488855205.901191, 1488855205.901191, -1.421631, +0.016113, -0.548096, +71.621429, +334.545471, -150.445923 
1488855205.905058, 1488855205.905058, -1.421631, +0.016113, -0.548096, +71.621429, +334.545471, -150.445923 
1488855205.908813, 1488855205.908813, -1.421631, +0.016113, -0.548096, +86.010468, +348.903992, -146.310791 
1488855205.912739, 1488855205.912739, -1.421631, +0.016113, -0.548096, +86.010468, +348.903992, -146.310791 
1488855205.917124, 1488855205.917124, -1.957397, -0.117554, -0.544189, +86.010468, +348.903992, -146.310791 
1488855205.921050, 1488855205.921050, -1.957397, -0.117554, -0.544189, +103.298676, +357.204773, -142.816528 
1488855205.924989, 1488855205.924989, -1.957397, -0.117554, -0.544189, +103.298676, +357.204773, -142.816528 
1488855205.928942, 1488855205.928942, -1.957397, -0.117554, -0.544189, +103.298676, +357.204773, -138.528809 
1488855205.932900, 1488855205.932900, -1.957397, -0.117554, -0.544189, +118.496429, +357.189514, -138.528809 
1488855205.936849, 1488855205.936849, -2.641479, -0.046875, -0.450317, +118.496429, +357.189514, -138.528809 
1488855205.940804, 1488855205.940804, -2.641479, -0.046875, -0.450317, +141.354095, +347.957947, -131.570801 
1488855205.944695, 1488855205.944695, -2.641479, -0.046875, -0.450317, +141.354095, +347.957947, -131.570801 
1488855205.948445, 1488855205.948445, -2.641479, -0.046875, -0.450317, +141.354095, +347.957947, -131.570801 
1488855205.952208, 1488855205.952208, -2.641479, -0.046875, -0.450317, +169.292938, +330.837585, -128.854736 
1488855205.955999, 1488855205.955999, -3.194580, +0.176270, -0.370483, +169.292938, +330.837585, -128.854736 
1488855205.959758, 1488855205.959758, -3.194580, +0.176270, -0.370483, +169.292938, +330.837585, -128.854736 
1488855205.963607, 1488855205.963607, -3.194580, +0.176270, -0.370483, +188.457977, +306.576111, -132.898315 
1488855205.967363, 1488855205.967363, -3.194580, +0.176270, -0.370483, +188.457977, +306.576111, -132.898315 
1488855205.971116, 1488855205.971116, -3.194580, +0.176270, -0.370483, +188.457977, +306.576111, -132.898315 
1488855205.975090, 1488855205.975090, -3.317993, +0.813110, +0.222778, +204.906952, +271.892883, -128.931030 
1488855205.979042, 1488855205.979042, -3.317993, +0.813110, +0.222778, +204.906952, +271.892883, -128.931030 
1488855205.982992, 1488855205.982992, -3.317993, +0.813110, +0.222778, +204.906952, +271.892883, -104.303345 
1488855205.987049, 1488855205.987049, -3.317993, +0.813110, +0.222778, +227.047455, +226.162292, -104.303345 
1488855205.990995, 1488855205.990995, -3.317993, +0.813110, +0.222778, +227.047455, +226.162292, -104.303345 
1488855205.994961, 1488855205.994961, -2.484009, +2.058228, +0.708496, +226.788055, +201.214172, -73.678955 
1488855205.998903, 1488855205.998903, -2.484009, +2.058228, +0.708496, +226.788055, +201.214172, -73.678955 
1488855206.002852, 1488855206.002852, -2.484009, +2.058228, +0.708496, +226.788055, +201.214172, -73.678955 
1488855206.006627, 1488855206.006627, -2.484009, +2.058228, +0.708496, +197.811615, +182.476379, -45.984249 
1488855206.010378, 1488855206.010378, -2.484009, +2.058228, +0.708496, +197.811615, +182.476379, -45.984249 
1488855206.014311, 1488855206.014311, -2.327759, +2.641113, +1.743408, +197.811615, +182.476379, -45.984249 
1488855206.018053, 1488855206.018053, -2.338623, +2.641113, +1.743408, +141.186249, +121.166573, -21.493895 
1488855206.021809, 1488855206.021809, -2.338623, +2.641113, +1.743408, +141.186249, +121.166573, -21.493895 
