timestamp_before, timestamp_after, accel_x, accel_y, accel_z, gyro_x, gyro_y, gyro_z
1488855947.675833, 1488855947.675833, -1.293457, +0.048828, -0.338867, -51.281616, -10.377185, -28.233593 
1488855947.687977, 1488855947.687977, -1.293457, +0.048828, -0.338867, -51.281616, -10.377185, -28.233593 
1488855947.692014, 1488855947.692014, -1.293457, +0.048828, -0.338867, -51.281616, -10.377185, -28.233593 
1488855947.695984, 1488855947.695984, -0.891724, +0.518311, -0.552124, -33.230469, -9.293811, -21.763866 
1488855947.699921, 1488855947.699921, -0.891724, +0.518311, -0.552124, -33.230469, -9.293811, -21.763866 
1488855947.703879, 1488855947.703879, -0.891724, +0.518311, -0.552124, -33.230469, -9.293811, -21.763866 
1488855947.707825, 1488855947.707825, -0.891724, +0.518311, -0.552124, -11.089967, -4.594104, -12.578076 
1488855947.711769, 1488855947.711769, -0.891724, +0.518311, -0.552124, -11.089967, -4.594104, -12.578076 
1488855947.715727, 1488855947.715727, -1.047485, +0.471802, -0.392822, -11.089967, -4.594104, -10.548657 
1488855947.719672, 1488855947.719672, -1.047485, +0.471802, -0.392822, -4.742311, -2.274768, -10.548657 
1488855947.723640, 1488855947.723640, -1.047485, +0.471802, -0.392822, -4.742311, -2.274768, -10.548657 
1488855947.727389, 1488855947.727389, -1.047485, +0.471802, -0.392822, -12.554811, -3.525989, -15.645093 
1488855947.731142, 1488855947.731142, -1.047485, +0.471802, -0.392822, -13.790772, -3.525989, -15.645093 
1488855947.734975, 1488855947.734975, -1.073486, +0.202881, -0.533203, -13.790772, -3.525989, -15.645093 
1488855947.738729, 1488855947.738729, -1.073486, +0.202881, -0.533203, -24.532959, -5.540149, -24.083202 
1488855947.742475, 1488855947.742475, -1.073486, +0.202881, -0.533203, -24.532959, -5.540149, -24.083202 
1488855947.746508, 1488855947.746508, -1.073486, +0.202881, -0.533203, -24.532959, -5.540149, -24.083202 
1488855947.750445, 1488855947.750445, -1.073486, +0.202881, -0.533203, -31.109497, -5.128161, -30.659740 
1488855947.754393, 1488855947.754393, -1.073486, +0.342407, -0.684570, -31.109497, -5.128161, -30.659740 
1488855947.758331, 1488855947.758331, -0.965088, +0.342407, -0.684570, -31.109497, -5.128161, -30.659740 
1488855947.762275, 1488855947.762275, -0.965088, +0.342407, -0.684570, -31.109497, -2.869861, -33.970898 
1488855947.766221, 1488855947.766221, -0.965088, +0.342407, -0.684570, -31.109497, -2.869861, -33.970898 
1488855947.770160, 1488855947.770160, -0.965088, +0.342407, -0.684570, -31.109497, -2.869861, -36.427563 
1488855947.774073, 1488855947.774073, -0.965088, +0.329224, -0.579102, -27.645752, -0.046985, -36.427563 
1488855947.777822, 1488855947.777822, -1.005249, +0.329224, -0.579102, -27.645752, -0.046985, -36.427563 
1488855947.781566, 1488855947.781566, -1.005249, +0.329224, -0.579102, -27.645752, +0.715955, -39.708202 
1488855947.785397, 1488855947.785397, -1.005249, +0.329224, -0.579102, -27.325317, +0.715955, -39.708202 
1488855947.789214, 1488855947.789214, -1.005249, +0.329224, -0.579102, -27.325317, +0.715955, -39.708202 
1488855947.793013, 1488855947.793013, -1.005249, +0.329224, -0.579102, -27.477905, -1.099841, -40.257519 
1488855947.797013, 1488855947.797013, -1.059204, +0.302246, -0.353394, -27.477905, -1.099841, -40.257519 
1488855947.801102, 1488855947.801102, -1.059204, +0.302246, -0.353394, -27.477905, -1.099841, -40.257519 
1488855947.805749, 1488855947.805749, -1.059204, +0.302246, -0.353394, -23.419067, -4.716174, -38.548534 
1488855947.809493, 1488855947.809493, -1.059204, +0.302246, -0.353394, -23.419067, -4.716174, -38.548534 
1488855947.813311, 1488855947.813311, -1.059204, +0.302246, -0.277466, -23.419067, -4.716174, -38.548534 
1488855947.817058, 1488855947.817058, -1.112671, +0.195679, -0.277466, -10.708497, -7.081286, -36.686962 
1488855947.820799, 1488855947.820799, -1.112671, +0.195679, -0.277466, -10.708497, -7.081286, -36.686962 
1488855947.824545, 1488855947.824545, -1.112671, +0.195679, -0.277466, -10.708497, -7.081286, -36.686962 
1488855947.828283, 1488855947.828283, -1.112671, +0.195679, -0.277466, +1.452758, -9.354846, -36.473339 
1488855947.832192, 1488855947.832192, -1.112671, +0.195679, -0.277466, +1.452758, -9.354846, -36.473339 
1488855947.835988, 1488855947.835988, -1.068970, +0.332642, -0.283325, +1.452758, -9.354846, -38.014477 
1488855947.839721, 1488855947.839721, -1.068970, +0.332642, -0.283325, +5.038573, -10.895984, -38.014477 
1488855947.843502, 1488855947.843502, -1.068970, +0.332642, -0.283325, +5.038573, -10.895984, -38.014477 
1488855947.847234, 1488855947.847234, -1.068970, +0.332642, -0.283325, +1.574828, -10.331409, -40.730541 
1488855947.850971, 1488855947.850971, -1.068970, +0.332642, -0.283325, +1.574828, -10.331409, -40.730541 
1488855947.854807, 1488855947.854807, -0.999146, +0.454224, -0.369995, +1.574828, -10.331409, -40.730541 
1488855947.858554, 1488855947.858554, -0.999146, +0.454224, -0.369995, -6.939576, -7.783191, -42.531078 
1488855947.862296, 1488855947.862296, -0.999146, +0.454224, -0.369995, -6.939576, -7.783191, -42.531078 
1488855947.866134, 1488855947.866134, -0.999146, +0.454224, -0.369995, -6.939576, -7.783191, -42.531078 
1488855947.869881, 1488855947.869881, -0.999146, +0.454224, -0.369995, -17.147705, -5.112903, -44.072216 
1488855947.873694, 1488855947.873694, -1.030396, +0.345703, -0.342651, -17.147705, -5.112903, -44.072216 
1488855947.877623, 1488855947.877623, -1.019653, +0.345703, -0.342651, -17.147705, -5.112903, -44.072216 
1488855947.881543, 1488855947.881543, -1.019653, +0.345703, -0.342651, -26.669189, -2.854602, -46.467846 
1488855947.885454, 1488855947.885454, -1.019653, +0.345703, -0.342651, -26.669189, -2.854602, -46.467846 
1488855947.889334, 1488855947.889334, -1.019653, +0.345703, -0.342651, -26.669189, -2.854602, -46.467846 
1488855947.893366, 1488855947.893366, -1.019653, +0.164795, -0.376221, -33.383057, -2.290027, -49.367016 
1488855947.897112, 1488855947.897112, -1.042114, +0.164795, -0.376221, -33.383057, -2.290027, -49.367016 
1488855947.900857, 1488855947.900857, -1.042114, +0.164795, -0.376221, -33.383057, -2.290027, -50.068920 
1488855947.904760, 1488855947.904760, -1.042114, +0.164795, -0.376221, -35.061523, -3.083484, -50.068920 
1488855947.908701, 1488855947.908701, -1.042114, +0.164795, -0.376221, -35.061523, -3.083484, -50.068920 
1488855947.912645, 1488855947.912645, -1.042114, +0.164795, -0.489380, -28.408691, -4.243152, -46.696728 
1488855947.916421, 1488855947.916421, -1.013306, +0.119141, -0.489380, -28.408691, -4.243152, -46.696728 
1488855947.920232, 1488855947.920232, -1.013306, +0.119141, -0.489380, -28.408691, -4.243152, -46.696728 
1488855947.924096, 1488855947.924096, -1.013306, +0.119141, -0.489380, -14.889405, -4.273669, -41.951244 
1488855947.928040, 1488855947.928040, -1.013306, +0.119141, -0.489380, -14.889405, -4.273669, -41.951244 
1488855947.931988, 1488855947.931988, -1.013306, +0.119141, -0.489380, -14.889405, -4.273669, -41.951244 
1488855947.935941, 1488855947.935941, -1.032227, +0.077148, -0.406128, -0.530885, -4.365222, -38.685863 
1488855947.939895, 1488855947.939895, -1.032227, +0.077148, -0.406128, -0.530885, -4.365222, -38.685863 
1488855947.943879, 1488855947.943879, -1.032227, +0.077148, -0.406128, -0.530885, -4.365222, -38.685863 
1488855947.947824, 1488855947.947824, -1.032227, +0.077148, -0.406128, +7.312133, -4.838244, -36.152905 
1488855947.951769, 1488855947.951769, -1.032227, +0.077148, -0.406128, +7.312133, -4.838244, -36.152905 
1488855947.955587, 1488855947.955587, -1.019043, +0.198608, -0.365112, +7.312133, -4.838244, -34.932201 
1488855947.959331, 1488855947.959331, -1.019043, +0.198608, -0.365112, +7.510497, -5.067126, -34.932201 
1488855947.963139, 1488855947.963139, -1.019043, +0.198608, -0.365112, +7.510497, -5.067126, -34.932201 
1488855947.966905, 1488855947.966905, -1.019043, +0.198608, -0.365112, +3.604247, -3.388659, -35.191601 
1488855947.970641, 1488855947.970641, -1.019043, +0.198608, -0.365112, +4.504516, -3.388659, -35.191601 
1488855947.974598, 1488855947.974598, -1.059692, +0.240112, -0.362793, +4.504516, -3.388659, -35.191601 
1488855947.978534, 1488855947.978534, -1.059692, +0.240112, -0.362793, +1.742675, -1.038806, -35.740917 
1488855947.982587, 1488855947.982587, -1.059692, +0.240112, -0.362793, +1.742675, -1.038806, -35.740917 
1488855947.986546, 1488855947.986546, -1.059692, +0.240112, -0.362793, +1.742675, -1.038806, -35.740917 
1488855947.990478, 1488855947.990478, -1.059692, +0.240112, -0.362793, -2.224610, +0.151380, -36.366528 
1488855947.994394, 1488855947.994394, -1.061523, +0.213867, -0.288452, -2.224610, +0.151380, -36.366528 
1488855947.998254, 1488855947.998254, -1.061523, +0.213867, -0.288452, -2.224610, +0.151380, -36.366528 
1488855948.001998, 1488855948.001998, -1.061523, +0.213867, -0.288452, -5.505250, +1.021131, -36.717480 
1488855948.006015, 1488855948.006015, -1.061523, +0.213867, -0.288452, -5.505250, +1.021131, -36.717480 
1488855948.010020, 1488855948.010020, -1.061523, +0.213867, -0.288452, -5.505250, +1.021131, -36.366528 
1488855948.014190, 1488855948.014190, -1.032593, +0.219360, -0.348022, -7.275270, +2.470716, -36.366528 
1488855948.017928, 1488855948.017928, -1.032593, +0.219360, -0.348022, -7.275270, +2.470716, -36.366528 
1488855948.021662, 1488855948.021662, -1.032593, +0.219360, -0.348022, -8.785890, +3.645642, -34.718578 
1488855948.025427, 1488855948.025427, -1.032593, +0.219360, -0.348022, -8.785890, +3.645642, -34.718578 
1488855948.029160, 1488855948.029160, -1.032593, +0.219360, -0.348022, -8.785890, +3.645642, -34.718578 
1488855948.032904, 1488855948.032904, -1.048828, +0.088989, -0.394775, -8.770631, +5.217298, -32.734936 
1488855948.036643, 1488855948.036643, -1.048828, +0.088989, -0.394775, -8.770631, +5.217298, -32.734936 
1488855948.040384, 1488855948.040384, -1.048828, +0.088989, -0.394775, -8.770631, +5.217298, -32.734936 
1488855948.044129, 1488855948.044129, -1.048828, +0.088989, -0.394775, -8.465455, +5.766614, -32.292431 
1488855948.047872, 1488855948.047872, -1.048828, +0.088989, -0.394775, -8.465455, +5.766614, -32.292431 
1488855948.051609, 1488855948.051609, -1.048828, +0.088989, -0.426880, -8.465455, +5.766614, -32.292431 
1488855948.055396, 1488855948.055396, -1.065796, +0.068726, -0.426880, -9.747193, +4.805310, -31.071728 
1488855948.059134, 1488855948.059134, -1.065796, +0.068726, -0.426880, -9.747193, +4.805310, -31.071728 
1488855948.062871, 1488855948.062871, -1.065796, +0.068726, -0.426880, -9.747193, +4.805310, -31.071728 
1488855948.066699, 1488855948.066699, -1.065796, +0.068726, -0.426880, -8.450196, +4.866345, -27.592724 
1488855948.070444, 1488855948.070444, -1.065796, +0.068726, -0.426880, -8.450196, +4.866345, -27.592724 
1488855948.074396, 1488855948.074396, -1.062134, +0.046753, -0.466187, -8.450196, +4.866345, -27.592724 
1488855948.078338, 1488855948.078338, -1.062134, +0.046753, -0.466187, -2.957032, +5.217298, -23.335522 
1488855948.082276, 1488855948.082276, -1.062134, +0.046753, -0.466187, -2.957032, +5.217298, -23.335522 
1488855948.086222, 1488855948.086222, -1.062134, +0.046753, -0.466187, -2.957032, +5.217298, -19.581860 
1488855948.090170, 1488855948.090170, -1.062134, +0.046753, -0.466187, +3.726317, +5.079968, -19.581860 
1488855948.094074, 1488855948.094074, -1.077881, +0.059204, -0.428345, +3.726317, +5.079968, -19.581860 
1488855948.097825, 1488855948.097825, -1.077881, +0.059204, -0.428345, +7.006957, +4.133924, -16.224926 
1488855948.101688, 1488855948.101688, -1.077881, +0.059204, -0.428345, +7.006957, +4.133924, -16.224926 
1488855948.105611, 1488855948.105611, -1.077881, +0.059204, -0.428345, +7.006957, +4.133924, -16.224926 
1488855948.109765, 1488855948.109765, -1.077881, +0.059204, -0.428345, +7.830932, +3.844007, -13.737744 
1488855948.113625, 1488855948.113625, -1.099854, +0.036987, -0.423462, +7.830932, +3.844007, -13.737744 
1488855948.117366, 1488855948.117366, -1.099854, +0.036987, -0.423462, +7.830932, +3.844007, -13.737744 
1488855948.121106, 1488855948.121106, -1.099854, +0.036987, -0.423462, +8.548095, +2.745374, -13.310498 
1488855948.124854, 1488855948.124854, -1.099854, +0.036987, -0.423462, +8.548095, +2.745374, -13.310498 
1488855948.128588, 1488855948.128588, -1.099854, +0.036987, -0.423462, +8.548095, +2.745374, -13.310498 
1488855948.132443, 1488855948.132443, -1.077637, +0.106445, -0.497192, +8.151366, +1.265271, -12.776441 
1488855948.136200, 1488855948.136200, -1.077637, +0.106445, -0.497192, +8.151366, +1.265271, -12.776441 
1488855948.139932, 1488855948.139932, -1.077637, +0.106445, -0.497192, +8.151366, +1.265271, -12.776441 
1488855948.143715, 1488855948.143715, -1.077637, +0.106445, -0.497192, +11.203124, -0.184314, -10.914868 
1488855948.147461, 1488855948.147461, -1.077637, +0.106445, -0.497192, +11.203124, -0.184314, -10.914868 
1488855948.151201, 1488855948.151201, -1.077637, +0.043945, -0.467896, +11.203124, -0.184314, -9.663648 
1488855948.155123, 1488855948.155123, -1.058105, +0.060913, -0.467896, +15.460326, -1.939075, -9.663648 
1488855948.158861, 1488855948.158861, -1.058105, +0.060913, -0.467896, +15.460326, -1.939075, -9.663648 
1488855948.162604, 1488855948.162604, -1.058105, +0.060913, -0.467896, +15.460326, -3.937976, -9.526319 
1488855948.166458, 1488855948.166458, -1.058105, +0.060913, -0.467896, +19.458130, -3.937976, -9.526319 
1488855948.170197, 1488855948.170197, -1.058105, +0.060913, -0.467896, +19.458130, -3.937976, -9.526319 
1488855948.173948, 1488855948.173948, -1.004883, +0.183472, -0.484863, +21.273926, -5.463855, -9.373731 
1488855948.177692, 1488855948.177692, -1.004883, +0.183472, -0.484863, +21.273926, -5.463855, -9.373731 
1488855948.181537, 1488855948.181537, -1.004883, +0.183472, -0.484863, +21.273926, -5.463855, -9.373731 
1488855948.185390, 1488855948.185390, -1.004883, +0.183472, -0.484863, +20.846680, -7.096545, -9.556836 
1488855948.189306, 1488855948.189306, -1.004883, +0.183472, -0.484863, +20.846680, -7.096545, -9.556836 
1488855948.193263, 1488855948.193263, -1.024902, +0.105347, -0.454224, +20.846680, -7.096545, -9.556836 
1488855948.197180, 1488855948.197180, -1.024902, +0.105347, -0.454224, +21.334961, -8.683459, -10.991162 
1488855948.201097, 1488855948.201097, -1.024902, +0.105347, -0.454224, +21.334961, -8.683459, -10.991162 
1488855948.205064, 1488855948.205064, -1.024902, +0.105347, -0.454224, +21.334961, -8.683459, -10.991162 
1488855948.208986, 1488855948.208986, -1.024902, +0.105347, -0.454224, +21.945312, -9.843127, -11.952466 
1488855948.212907, 1488855948.212907, -1.050171, +0.080566, -0.438110, +21.945312, -9.843127, -11.952466 
1488855948.216869, 1488855948.216869, -1.050171, +0.080566, -0.438110, +21.945312, -9.843127, -11.586255 
1488855948.220869, 1488855948.220869, -1.050171, +0.080566, -0.438110, +23.440674, -10.178821, -11.586255 
1488855948.224824, 1488855948.224824, -1.050171, +0.080566, -0.438110, +23.440674, -10.178821, -11.586255 
1488855948.228772, 1488855948.228772, -1.050171, +0.080566, -0.438110, +26.522949, -11.307971, -11.311597 
1488855948.232713, 1488855948.232713, -1.051392, +0.044189, -0.374634, +26.522949, -11.307971, -11.311597 
1488855948.236707, 1488855948.236707, -1.051392, +0.044189, -0.374634, +26.522949, -11.307971, -11.311597 
1488855948.240652, 1488855948.240652, -1.051392, +0.044189, -0.374634, +27.896240, -11.491076, -10.792798 
1488855948.244604, 1488855948.244604, -1.051392, +0.044189, -0.374634, +27.896240, -11.491076, -10.792798 
1488855948.248548, 1488855948.248548, -1.051392, +0.044189, -0.374634, +27.896240, -11.491076, -10.792798 
1488855948.252490, 1488855948.252490, -1.029663, +0.134888, -0.409180, +27.667358, -11.506335, -10.487622 
1488855948.256261, 1488855948.256261, -1.029663, +0.134888, -0.409180, +27.667358, -11.506335, -10.487622 
1488855948.260009, 1488855948.260009, -1.029663, +0.134888, -0.409180, +27.667358, -11.506335, -10.487622 
1488855948.263849, 1488855948.263849, -1.029663, +0.134888, -0.409180, +25.836304, -11.048572, -9.572095 
1488855948.267606, 1488855948.267606, -1.029663, +0.134888, -0.409180, +25.836304, -11.048572, -9.572095 
1488855948.271354, 1488855948.271354, -1.082886, +0.018311, -0.361084, +25.836304, -11.048572, -10.121411 
1488855948.275140, 1488855948.275140, -1.082886, +0.018311, -0.361084, +24.997070, -10.621325, -10.121411 
1488855948.278891, 1488855948.278891, -1.082886, +0.018311, -0.361084, +24.997070, -10.621325, -10.121411 
1488855948.282746, 1488855948.282746, -1.082886, +0.018311, -0.361084, +23.989990, -10.758655, -10.930127 
1488855948.286723, 1488855948.286723, -1.082886, +0.018311, -0.361084, +23.989990, -10.758655, -10.930127 
1488855948.290668, 1488855948.290668, -1.060059, +0.036743, -0.357666, +23.989990, -10.758655, -10.930127 
1488855948.294617, 1488855948.294617, -1.060059, +0.036743, -0.357666, +23.898438, -10.438220, -10.670728 
1488855948.298566, 1488855948.298566, -1.060059, +0.036743, -0.357666, +23.898438, -10.438220, -10.670728 
1488855948.302509, 1488855948.302509, -1.060059, +0.036743, -0.357666, +23.898438, -10.438220, -10.670728 
1488855948.306493, 1488855948.306493, -1.060059, +0.036743, -0.357666, +24.463013, -10.239856, -10.106153 
1488855948.310361, 1488855948.310361, -1.060059, +0.094971, -0.420776, +24.463013, -10.239856, -10.106153 
1488855948.314248, 1488855948.314248, -1.051636, +0.094971, -0.420776, +24.463013, -10.239856, -10.106153 
1488855948.318146, 1488855948.318146, -1.051636, +0.094971, -0.420776, +24.417236, -9.675281, -9.282178 
1488855948.322465, 1488855948.322465, -1.051636, +0.094971, -0.420776, +24.417236, -9.675281, -9.282178 
1488855948.326240, 1488855948.326240, -1.051636, +0.094971, -0.420776, +24.417236, -9.232776, -8.778638 
1488855948.329986, 1488855948.329986, -1.051636, +0.088745, -0.431152, +23.150757, -9.232776, -8.778638 
1488855948.333778, 1488855948.333778, -1.065308, +0.088745, -0.431152, +23.150757, -9.232776, -8.778638 
1488855948.337725, 1488855948.337725, -1.065308, +0.088745, -0.431152, +21.090820, -8.897082, -8.015698 
1488855948.341668, 1488855948.341668, -1.065308, +0.088745, -0.431152, +21.090820, -8.897082, -8.015698 
1488855948.345613, 1488855948.345613, -1.065308, +0.088745, -0.431152, +21.090820, -8.897082, -8.015698 
1488855948.349556, 1488855948.349556, -1.065308, +0.057495, -0.365967, +19.427612, -9.324328, -8.488721 
1488855948.353495, 1488855948.353495, -1.060181, +0.039429, -0.365967, +19.427612, -9.324328, -8.488721 
1488855948.357237, 1488855948.357237, -1.060181, +0.039429, -0.365967, +19.427612, -9.324328, -8.488721 
1488855948.360977, 1488855948.360977, -1.060181, +0.039429, -0.365967, +16.848877, -9.980456, -8.915967 
1488855948.364775, 1488855948.364775, -1.060181, +0.039429, -0.365967, +16.848877, -9.980456, -8.915967 
1488855948.368522, 1488855948.368522, -1.060181, +0.039429, -0.365967, +16.848877, -9.980456, -8.915967 
1488855948.372267, 1488855948.372267, -1.078125, +0.026978, -0.415771, +16.879395, -9.217517, -8.595532 
1488855948.376157, 1488855948.376157, -1.078125, +0.026978, -0.415771, +16.879395, -9.217517, -8.595532 
1488855948.379899, 1488855948.379899, -1.078125, +0.026978, -0.415771, +16.879395, -9.217517, -8.595532 
1488855948.383712, 1488855948.383712, -1.078125, +0.026978, -0.415771, +17.382935, -9.293811, -8.381909 
1488855948.387625, 1488855948.387625, -1.078125, +0.026978, -0.415771, +17.382935, -9.293811, -8.381909 
1488855948.391546, 1488855948.391546, -1.077881, +0.012695, -0.389893, +17.382935, -9.400622, -7.924146 
1488855948.395472, 1488855948.395472, -1.077881, +0.012695, -0.389893, +17.535522, -9.400622, -7.924146 
1488855948.399383, 1488855948.399383, -1.077881, +0.012695, -0.389893, +17.535522, -9.400622, -7.924146 
1488855948.403312, 1488855948.403312, -1.077881, +0.012695, -0.389893, +18.023804, -9.934680, -7.832593 
1488855948.407219, 1488855948.407219, -1.077881, +0.012695, -0.389893, +18.023804, -9.934680, -7.832593 
1488855948.411134, 1488855948.411134, -1.044312, +0.035400, -0.397461, +18.023804, -9.934680, -7.832593 
1488855948.415216, 1488855948.415216, -1.044312, +0.035400, -0.397461, +18.451050, -10.270373, -8.046216 
1488855948.419921, 1488855948.419921, -1.044312, +0.035400, -0.397461, +18.451050, -10.270373, -8.046216 
1488855948.423754, 1488855948.423754, -1.044312, +0.035400, -0.397461, +18.451050, -10.270373, -8.488721 
1488855948.427489, 1488855948.427489, -1.044312, +0.035400, -0.397461, +18.222168, -10.728137, -8.488721 
1488855948.431348, 1488855948.431348, -1.077026, +0.030029, -0.412109, +18.222168, -10.728137, -8.488721 
1488855948.435102, 1488855948.435102, -1.077026, +0.030029, -0.412109, +18.222168, -11.430041, -10.029859 
1488855948.438853, 1488855948.438853, -1.077026, +0.030029, -0.412109, +17.016724, -11.430041, -10.029859 
1488855948.442607, 1488855948.442607, -1.077026, +0.030029, -0.412109, +17.016724, -11.430041, -10.029859 
1488855948.446370, 1488855948.446370, -1.077026, +0.030029, -0.412109, +15.506103, -12.284534, -11.586255 
1488855948.450116, 1488855948.450116, -1.087402, +0.014038, -0.381714, +15.506103, -12.284534, -11.586255 
1488855948.453884, 1488855948.453884, -1.087402, +0.014038, -0.381714, +15.506103, -12.284534, -11.586255 
1488855948.457638, 1488855948.457638, -1.087402, +0.014038, -0.381714, +14.590575, -12.742297, -12.150830 
1488855948.461377, 1488855948.461377, -1.087402, +0.014038, -0.381714, +14.590575, -12.742297, -12.150830 
1488855948.465348, 1488855948.465348, -1.087402, +0.014038, -0.381714, +14.590575, -12.742297, -12.150830 
1488855948.469095, 1488855948.469095, -1.087402, +0.014160, -0.396118, +14.758422, -13.520495, -12.440747 
1488855948.472840, 1488855948.472840, -1.057007, +0.014160, -0.396118, +14.758422, -13.520495, -12.440747 
1488855948.476681, 1488855948.476681, -1.057007, +0.014160, -0.396118, +14.758422, -13.520495, -12.440747 
1488855948.480429, 1488855948.480429, -1.057007, +0.014160, -0.396118, +15.170409, -13.932483, -12.684888 
1488855948.484234, 1488855948.484234, -1.057007, +0.014160, -0.396118, +15.170409, -13.932483, -12.684888 
1488855948.487978, 1488855948.487978, -1.057007, +0.014160, -0.396118, +15.170409, -13.932483, -12.684888 
1488855948.491724, 1488855948.491724, -1.054810, +0.074585, -0.415527, +14.026000, -13.596789, -12.913770 
1488855948.495475, 1488855948.495475, -1.054810, +0.074585, -0.415527, +14.026000, -13.596789, -12.913770 
1488855948.499222, 1488855948.499222, -1.054810, +0.074585, -0.415527, +14.026000, -13.596789, -12.913770 
1488855948.503009, 1488855948.503009, -1.054810, +0.074585, -0.415527, +10.989501, -13.489978, -14.622754 
1488855948.506960, 1488855948.506960, -1.054810, +0.074585, -0.415527, +10.989501, -13.489978, -14.622754 
1488855948.510915, 1488855948.510915, -1.070435, -0.020996, -0.364258, +10.989501, -13.489978, -16.377514 
1488855948.514820, 1488855948.514820, -1.070435, -0.020996, -0.364258, +8.349730, -14.603869, -16.377514 
1488855948.518573, 1488855948.518573, -1.070435, -0.020996, -0.364258, +8.349730, -14.603869, -16.377514 
1488855948.522330, 1488855948.522330, -1.070435, -0.020996, -0.364258, +7.785155, -15.427844, -17.415112 
1488855948.526297, 1488855948.526297, -1.070435, -0.020996, -0.364258, +7.785155, -15.427844, -17.415112 
1488855948.530340, 1488855948.530340, -1.055786, -0.024780, -0.401001, +7.785155, -15.427844, -17.415112 
1488855948.534420, 1488855948.534420, -1.055786, -0.024780, -0.401001, +8.380248, -15.702502, -17.628735 
1488855948.538367, 1488855948.538367, -1.055786, -0.024780, -0.401001, +8.380248, -15.702502, -17.628735 
1488855948.542315, 1488855948.542315, -1.055786, -0.024780, -0.401001, +8.380248, -15.702502, -17.628735 
1488855948.546319, 1488855948.546319, -1.055786, -0.024780, -0.401001, +9.768798, -16.419666, -17.643993 
1488855948.550267, 1488855948.550267, -1.083252, -0.031128, -0.392334, +9.768798, -16.419666, -17.643993 
1488855948.554215, 1488855948.554215, -1.083252, -0.031128, -0.392334, +9.768798, -16.419666, -18.208569 
1488855948.558172, 1488855948.558172, -1.083252, -0.031128, -0.392334, +10.272338, -17.075794, -18.208569 
1488855948.562116, 1488855948.562116, -1.083252, -0.031128, -0.392334, +10.272338, -17.075794, -18.208569 
1488855948.565956, 1488855948.565956, -1.083252, -0.031128, -0.392334, +10.272338, -17.640369, -18.925732 
1488855948.569706, 1488855948.569706, -1.071655, -0.028564, -0.368652, +9.784057, -17.640369, -18.925732 
1488855948.573502, 1488855948.573502, -1.071655, -0.028564, -0.368652, +9.784057, -17.640369, -18.925732 
1488855948.577249, 1488855948.577249, -1.071655, -0.028564, -0.368652, +9.936645, -18.296497, -19.261425 
1488855948.581111, 1488855948.581111, -1.071655, -0.028564, -0.368652, +9.936645, -18.296497, -19.261425 
1488855948.584957, 1488855948.584957, -1.071655, -0.028564, -0.368652, +9.936645, -18.296497, -19.261425 
1488855948.588710, 1488855948.588710, -1.091675, -0.017944, -0.380127, +10.333373, -19.883411, -20.604198 
1488855948.592465, 1488855948.592465, -1.091675, -0.017944, -0.380127, +10.333373, -19.883411, -20.604198 
1488855948.596513, 1488855948.596513, -1.091675, -0.017944, -0.380127, +10.333373, -19.883411, -20.604198 
1488855948.600460, 1488855948.600460, -1.091675, -0.017944, -0.380127, +10.714843, -20.432728, -21.412914 
1488855948.604404, 1488855948.604404, -1.091675, -0.017944, -0.380127, +10.714843, -20.432728, -21.412914 
1488855948.608354, 1488855948.608354, -1.097168, -0.022461, -0.412231, +10.714843, -20.432728, -21.412914 
1488855948.612301, 1488855948.612301, -1.097168, -0.022461, -0.412231, +9.753539, -21.073597, -22.053783 
1488855948.616120, 1488855948.616120, -1.097168, -0.022461, -0.412231, +9.753539, -21.073597, -22.053783 
1488855948.619868, 1488855948.619868, -1.097168, -0.022461, -0.412231, +9.753539, -21.073597, -23.213451 
1488855948.624004, 1488855948.624004, -1.097168, -0.022461, -0.412231, +9.982421, -21.653431, -23.213451 
1488855948.627892, 1488855948.627892, -1.097168, -0.036987, -0.385986, +9.982421, -21.653431, -23.213451 
1488855948.632460, 1488855948.632460, -1.113037, -0.036987, -0.385986, +10.348632, -23.103016, -23.732250 
1488855948.636285, 1488855948.636285, -1.113037, -0.036987, -0.385986, +10.348632, -23.103016, -23.732250 
1488855948.640026, 1488855948.640026, -1.113037, -0.036987, -0.385986, +10.348632, -23.103016, -23.732250 
1488855948.643772, 1488855948.643772, -1.113037, -0.036987, -0.385986, +12.652709, -23.988026, -23.305004 
1488855948.647510, 1488855948.647510, -1.113037, -0.036987, -0.390503, +12.652709, -23.988026, -23.305004 
1488855948.651254, 1488855948.651254, -1.083984, -0.040283, -0.390503, +12.652709, -23.988026, -23.305004 
1488855948.655030, 1488855948.655030, -1.083984, -0.040283, -0.390503, +14.300658, -25.056141, -23.900097 
1488855948.658775, 1488855948.658775, -1.083984, -0.040283, -0.390503, +14.300658, -25.056141, -23.900097 
1488855948.662516, 1488855948.662516, -1.083984, -0.040283, -0.390503, +14.300658, -25.056141, -23.900097 
1488855948.666269, 1488855948.666269, -1.083984, -0.040283, -0.390503, +15.017821, -25.773304, -25.013988 
1488855948.670013, 1488855948.670013, -1.118042, -0.044189, -0.369507, +15.017821, -25.773304, -25.013988 
1488855948.673810, 1488855948.673810, -1.118042, -0.044189, -0.369507, +15.017821, -25.773304, -25.013988 
1488855948.677560, 1488855948.677560, -1.118042, -0.044189, -0.369507, +14.300658, -26.536243, -25.944775 
1488855948.681309, 1488855948.681309, -1.118042, -0.044189, -0.369507, +14.300658, -26.536243, -25.944775 
1488855948.685148, 1488855948.685148, -1.118042, -0.044189, -0.369507, +14.300658, -26.536243, -26.387280 
1488855948.688894, 1488855948.688894, -1.153564, -0.118042, -0.331177, +14.392211, -27.375477, -26.387280 
1488855948.692635, 1488855948.692635, -1.153564, -0.118042, -0.331177, +14.392211, -27.375477, -26.387280 
1488855948.696385, 1488855948.696385, -1.153564, -0.118042, -0.331177, +14.392211, -28.580921, -26.631420 
1488855948.700133, 1488855948.700133, -1.153564, -0.118042, -0.331177, +16.177490, -28.580921, -26.631420 
1488855948.703932, 1488855948.703932, -1.153564, -0.118042, -0.331177, +16.177490, -28.580921, -26.631420 
1488855948.707881, 1488855948.707881, -1.127686, -0.086182, -0.357422, +19.305542, -29.832142, -26.326244 
1488855948.711829, 1488855948.711829, -1.127686, -0.086182, -0.357422, +19.305542, -29.832142, -26.326244 
1488855948.715655, 1488855948.715655, -1.127686, -0.086182, -0.357422, +19.305542, -29.832142, -26.326244 
1488855948.719407, 1488855948.719407, -1.127686, -0.086182, -0.357422, +21.045044, -30.396717, -26.005810 
1488855948.723228, 1488855948.723228, -1.127686, -0.086182, -0.357422, +21.045044, -30.396717, -26.005810 
1488855948.727280, 1488855948.727280, -1.158936, -0.104248, -0.305054, +21.045044, -30.396717, -26.005810 
1488855948.731226, 1488855948.731226, -1.158081, -0.104248, -0.305054, +20.510986, -30.732410, -25.898998 
1488855948.735180, 1488855948.735180, -1.158081, -0.104248, -0.305054, +20.510986, -30.732410, -25.898998 
1488855948.739329, 1488855948.739329, -1.158081, -0.104248, -0.305054, +20.510986, -30.732410, -26.692455 
1488855948.743678, 1488855948.743678, -1.158081, -0.104248, -0.305054, +20.205811, -32.120960, -26.692455 
1488855948.747628, 1488855948.747628, -1.156982, -0.111450, -0.280396, +20.205811, -32.120960, -26.692455 
1488855948.751575, 1488855948.751575, -1.156982, -0.111450, -0.280396, +20.404175, -34.013050, -27.516430 
1488855948.755412, 1488855948.755412, -1.156982, -0.111450, -0.280396, +20.404175, -34.013050, -27.516430 
1488855948.759162, 1488855948.759162, -1.156982, -0.111450, -0.280396, +20.404175, -34.013050, -27.516430 
1488855948.762908, 1488855948.762908, -1.156982, -0.111450, -0.280396, +19.687012, -35.020130, -28.477734 
1488855948.766905, 1488855948.766905, -1.156982, -0.116577, -0.263916, +19.687012, -35.020130, -28.477734 
1488855948.770858, 1488855948.770858, -1.126831, -0.116577, -0.263916, +19.687012, -35.020130, -28.477734 
1488855948.774719, 1488855948.774719, -1.126831, -0.116577, -0.263916, +19.244507, -35.828846, -28.904980 
1488855948.778469, 1488855948.778469, -1.126831, -0.116577, -0.263916, +19.244507, -35.828846, -28.904980 
1488855948.782219, 1488855948.782219, -1.126831, -0.116577, -0.263916, +19.244507, -35.828846, -28.904980 
1488855948.785988, 1488855948.785988, -1.126831, -0.116577, -0.357666, +17.123535, -38.224476, -29.271191 
1488855948.789746, 1488855948.789746, -1.152466, -0.095215, -0.374268, +17.123535, -38.224476, -29.271191 
1488855948.793592, 1488855948.793592, -1.152466, -0.095215, -0.374268, +17.123535, -38.224476, -29.271191 
1488855948.797352, 1488855948.797352, -1.152466, -0.095215, -0.374268, +14.041259, -39.124744, -30.354565 
1488855948.801100, 1488855948.801100, -1.152466, -0.095215, -0.374268, +14.041259, -39.124744, -30.354565 
1488855948.804965, 1488855948.804965, -1.152466, -0.095215, -0.374268, +14.041259, -39.124744, -31.514233 
1488855948.808715, 1488855948.808715, -1.174683, -0.184326, -0.312988, +12.805297, -39.719837, -31.514233 
1488855948.812462, 1488855948.812462, -1.174683, -0.184326, -0.312988, +12.805297, -39.719837, -31.514233 
1488855948.816402, 1488855948.816402, -1.174683, -0.184326, -0.312988, +15.322997, -41.123646, -32.628124 
1488855948.820346, 1488855948.820346, -1.174683, -0.184326, -0.312988, +15.322997, -41.123646, -32.628124 
1488855948.824299, 1488855948.824299, -1.174683, -0.184326, -0.312988, +15.322997, -41.123646, -32.628124 
1488855948.828239, 1488855948.828239, -1.150146, -0.059082, -0.265015, +19.442871, -44.282215, -33.040112 
1488855948.832191, 1488855948.832191, -1.150146, -0.059082, -0.265015, +19.442871, -44.282215, -33.040112 
1488855948.836395, 1488855948.836395, -1.150146, -0.059082, -0.265015, +19.442871, -44.282215, -33.040112 
1488855948.840845, 1488855948.840845, -1.150146, -0.059082, -0.265015, +21.243408, -46.525257, -34.001415 
1488855948.844666, 1488855948.844666, -1.150146, -0.059082, -0.265015, +21.243408, -46.525257, -34.001415 
1488855948.848410, 1488855948.848410, -1.212402, -0.076782, -0.265259, +21.243408, -46.525257, -37.419384 
1488855948.852158, 1488855948.852158, -1.212402, -0.076782, -0.265259, +19.381836, -48.508900, -37.419384 
1488855948.855946, 1488855948.855946, -1.212402, -0.076782, -0.265259, +19.381836, -48.508900, -37.419384 
1488855948.859696, 1488855948.859696, -1.212402, -0.076782, -0.265259, +19.381836, -50.172108, -41.585033 
1488855948.863487, 1488855948.863487, -1.212402, -0.076782, -0.265259, +17.199829, -50.172108, -41.585033 
1488855948.867226, 1488855948.867226, -1.241333, -0.097778, -0.299438, +17.199829, -50.172108, -41.585033 
1488855948.870968, 1488855948.870968, -1.241333, -0.097778, -0.299438, +15.429809, -50.721424, -45.064037 
1488855948.874820, 1488855948.874820, -1.241333, -0.097778, -0.299438, +15.429809, -50.721424, -45.064037 
1488855948.878567, 1488855948.878567, -1.241333, -0.097778, -0.299438, +15.429809, -50.721424, -45.064037 
1488855948.882310, 1488855948.882310, -1.241333, -0.097778, -0.299438, +17.428711, -52.674549, -48.054760 
1488855948.886123, 1488855948.886123, -1.272583, -0.207275, -0.347900, +17.428711, -52.674549, -48.054760 
1488855948.889875, 1488855948.889875, -1.277222, -0.207275, -0.347900, +17.428711, -52.674549, -48.054760 
1488855948.893797, 1488855948.893797, -1.277222, -0.207275, -0.347900, +22.479370, -53.544300, -51.365917 
1488855948.897748, 1488855948.897748, -1.277222, -0.207275, -0.347900, +22.479370, -53.544300, -51.365917 
1488855948.901696, 1488855948.901696, -1.277222, -0.207275, -0.347900, +22.479370, -53.544300, -51.365917 
1488855948.905563, 1488855948.905563, -1.277222, -0.144775, -0.325928, +29.528931, -55.024403, -54.219311 
1488855948.909311, 1488855948.909311, -1.304443, -0.133911, -0.325928, +29.528931, -55.024403, -54.219311 
1488855948.913070, 1488855948.913070, -1.304443, -0.133911, -0.325928, +29.528931, -55.024403, -54.219311 
1488855948.917018, 1488855948.917018, -1.304443, -0.133911, -0.325928, +38.363770, -56.138294, -56.614941 
1488855948.920964, 1488855948.920964, -1.304443, -0.133911, -0.325928, +38.363770, -56.138294, -56.614941 
1488855948.924926, 1488855948.924926, -1.304443, -0.133911, -0.294678, +38.363770, -56.138294, -58.659618 
1488855948.928877, 1488855948.928877, -1.345215, -0.066284, -0.284912, +45.810059, -57.206409, -58.659618 
1488855948.932824, 1488855948.932824, -1.345215, -0.066284, -0.284912, +45.810059, -57.206409, -58.659618 
1488855948.936725, 1488855948.936725, -1.345215, -0.066284, -0.284912, +52.249268, -57.923573, -61.589306 
1488855948.940471, 1488855948.940471, -1.345215, -0.066284, -0.284912, +52.249268, -57.923573, -61.589306 
1488855948.944277, 1488855948.944277, -1.345215, -0.066284, -0.284912, +52.249268, -57.923573, -61.589306 
1488855948.948026, 1488855948.948026, -1.406128, +0.032593, -0.233032, +57.788208, -59.617298, -64.152786 
1488855948.951867, 1488855948.951867, -1.406128, +0.032593, -0.233032, +57.788208, -59.617298, -64.152786 
1488855948.956238, 1488855948.956238, -1.406128, +0.032593, -0.233032, +57.788208, -59.617298, -64.152786 
1488855948.959978, 1488855948.959978, -1.406128, +0.032593, -0.233032, +62.320068, -62.409657, -65.571854 
1488855948.963839, 1488855948.963839, -1.406128, +0.032593, -0.233032, +62.320068, -62.409657, -65.571854 
1488855948.967590, 1488855948.967590, -1.479248, +0.000977, -0.156982, +62.320068, -62.409657, -65.571854 
1488855948.971329, 1488855948.971329, -1.479248, +0.000977, -0.156982, +65.936401, -66.041245, -66.151688 
1488855948.975089, 1488855948.975089, -1.479248, +0.000977, -0.156982, +65.936401, -66.041245, -66.151688 
1488855948.978840, 1488855948.978840, -1.479248, +0.000977, -0.156982, +65.936401, -66.041245, -66.151688 
1488855948.982583, 1488855948.982583, -1.479248, +0.000977, -0.156982, +69.537476, -69.596542, -65.144608 
1488855948.986383, 1488855948.986383, -1.504517, +0.062622, -0.182251, +69.537476, -69.596542, -65.144608 
1488855948.990126, 1488855948.990126, -1.504517, +0.062622, -0.182251, +69.537476, -69.596542, -63.221996 
1488855948.993912, 1488855948.993912, -1.504517, +0.062622, -0.182251, +72.711304, -74.769272, -63.221996 
1488855948.997655, 1488855948.997655, -1.504517, +0.062622, -0.182251, +72.711304, -74.769272, -63.221996 
1488855949.001407, 1488855949.001407, -1.504517, +0.062622, -0.182251, +76.617554, -78.538193, -60.460155 
1488855949.005316, 1488855949.005316, -1.285767, +0.014160, -0.234985, +73.657349, -78.538193, -60.460155 
1488855949.009062, 1488855949.009062, -1.285889, +0.014160, -0.234985, +73.657349, -78.538193, -60.460155 
1488855949.012813, 1488855949.012813, -1.285889, +0.014160, -0.234985, +69.613770, -79.957260, -59.285229 
1488855949.016658, 1488855949.016658, -1.285889, +0.014160, -0.234985, +69.613770, -79.957260, -59.285229 
1488855949.020404, 1488855949.020404, -1.285889, +0.014160, -0.234985, +69.613770, -79.957260, -59.285229 
1488855949.024267, 1488855949.024267, -1.285889, +0.014160, -0.203735, +57.162598, -78.660263, -60.246532 
1488855949.028017, 1488855949.028017, -1.027588, -0.010620, -0.210815, +57.162598, -78.660263, -60.246532 
1488855949.031762, 1488855949.031762, -1.027588, -0.010620, -0.210815, +57.162598, -78.660263, -60.246532 
1488855949.035704, 1488855949.035704, -1.027588, -0.010620, -0.210815, +39.965942, -73.762192, -62.321728 
1488855949.039657, 1488855949.039657, -1.027588, -0.010620, -0.210815, +39.965942, -73.762192, -62.321728 
1488855949.043582, 1488855949.043582, -1.027588, -0.010620, -0.210815, +39.965942, -73.762192, -62.321728 
1488855949.047339, 1488855949.047339, -0.897461, -0.255249, -0.192871, +21.701172, -65.507187, -65.541336 
1488855949.051087, 1488855949.051087, -0.897461, -0.255249, -0.192871, +21.701172, -65.507187, -65.541336 
1488855949.054957, 1488855949.054957, -0.897461, -0.255249, -0.192871, +21.701172, -65.507187, -69.447586 
1488855949.058901, 1488855949.058901, -0.897461, -0.255249, -0.192871, +4.748656, -55.863636, -68.532059 
1488855949.062851, 1488855949.062851, -0.897461, -0.255249, -0.192871, +4.748656, -55.863636, -68.532059 
1488855949.066853, 1488855949.066853, -0.869873, -0.567505, -0.139160, -6.970094, -46.586292, -69.752762 
1488855949.070873, 1488855949.070873, -0.869873, -0.567505, -0.139160, -6.756471, -46.586292, -69.752762 
1488855949.075059, 1488855949.075059, -0.869873, -0.567505, -0.139160, -6.756471, -46.586292, -69.752762 
1488855949.078981, 1488855949.078981, -0.869873, -0.567505, -0.139160, -10.525392, -37.797230, -67.769119 
1488855949.082907, 1488855949.082907, -0.869873, -0.567505, -0.139160, -10.525392, -37.797230, -67.769119 
1488855949.086884, 1488855949.086884, -0.731445, -0.731323, -0.155396, -10.525392, -37.797230, -67.769119 
1488855949.090831, 1488855949.090831, -0.731445, -0.731323, -0.155396, -4.879640, -26.749866, -61.497753 
1488855949.094720, 1488855949.094720, -0.731445, -0.731323, -0.155396, -4.879640, -26.749866, -61.497753 
1488855949.098463, 1488855949.098463, -0.731445, -0.731323, -0.155396, -4.879640, -26.749866, -61.497753 
1488855949.102212, 1488855949.102212, -0.731445, -0.731323, -0.155396, +7.312133, -14.100329, -47.261303 
1488855949.105993, 1488855949.105993, -0.654785, -0.218872, -0.349854, +7.312133, -14.100329, -47.261303 
1488855949.109747, 1488855949.109747, -0.654785, -0.218872, -0.349854, +7.312133, -14.100329, -27.043407 
1488855949.113501, 1488855949.113501, -0.654785, -0.218872, -0.349854, +15.521361, -5.646960, -27.043407 
1488855949.117255, 1488855949.117255, -0.654785, -0.218872, -0.349854, +15.521361, -5.646960, -27.043407 
1488855949.121007, 1488855949.121007, -0.654785, -0.218872, -0.349854, +15.521361, -1.740710, -6.367749 
1488855949.124922, 1488855949.124922, -0.454834, +0.277100, -0.327637, +18.267944, +0.044568, -6.367749 
1488855949.128665, 1488855949.128665, -0.454834, +0.277100, -0.327637, +18.267944, +0.044568, -6.367749 
1488855949.132413, 1488855949.132413, -0.454834, +0.277100, -0.327637, +26.492432, +4.164441, +14.429980 
1488855949.136448, 1488855949.136448, -0.454834, +0.277100, -0.327637, +26.492432, +4.164441, +14.429980 
1488855949.140394, 1488855949.140394, -0.454834, +0.277100, -0.327637, +26.492432, +4.164441, +14.429980 
1488855949.144298, 1488855949.144298, -0.454834, +0.226807, -0.084106, +33.160522, +7.475598, +32.755787 
1488855949.148047, 1488855949.148047, -0.463135, +0.226807, -0.084106, +33.160522, +7.475598, +32.755787 
1488855949.151800, 1488855949.151800, -0.463135, +0.226807, -0.084106, +33.160522, +7.475598, +32.755787 
1488855949.155725, 1488855949.155725, -0.463135, +0.226807, -0.084106, +32.321289, +12.388928, +47.053272 
1488855949.159672, 1488855949.159672, -0.463135, +0.226807, -0.084106, +32.321289, +12.388928, +47.053272 
1488855949.163664, 1488855949.163664, -0.463135, +0.008057, -0.051758, +32.321289, +12.388928, +47.053272 
1488855949.167617, 1488855949.167617, -0.613892, +0.029785, -0.051758, +25.302246, +18.614513, +60.343678 
1488855949.171671, 1488855949.171671, -0.613892, +0.029785, -0.051758, +25.302246, +18.614513, +60.343678 
1488855949.175628, 1488855949.175628, -0.613892, +0.029785, -0.051758, +17.489746, +24.214489, +73.252609 
1488855949.179576, 1488855949.179576, -0.613892, +0.029785, -0.051758, +15.567138, +24.214489, +73.252609 
1488855949.183541, 1488855949.183541, -0.613892, +0.092285, -0.061401, +15.567138, +24.214489, +73.252609 
1488855949.187488, 1488855949.187488, -0.709106, +0.063599, -0.061401, +5.465819, +30.409557, +85.200241 
1488855949.191545, 1488855949.191545, -0.709106, +0.063599, -0.061401, +5.465819, +30.409557, +85.200241 
1488855949.195576, 1488855949.195576, -0.709106, +0.063599, -0.061401, +5.465819, +30.409557, +85.200241 
1488855949.199332, 1488855949.199332, -0.709106, +0.063599, -0.061401, -3.430055, +35.338146, +96.659592 
1488855949.203090, 1488855949.203090, -0.709106, +0.063599, -0.082275, -3.430055, +35.338146, +96.659592 
1488855949.207034, 1488855949.207034, -0.722778, +0.091431, -0.082275, -3.430055, +35.338146, +96.659592 
1488855949.210990, 1488855949.210990, -0.722778, +0.091431, -0.082275, -11.379884, +41.395885, +106.425217 
1488855949.214947, 1488855949.214947, -0.722778, +0.091431, -0.082275, -11.379884, +41.395885, +106.425217 
1488855949.218900, 1488855949.218900, -0.722778, +0.091431, -0.082275, -11.379884, +49.208385, +113.856247 
1488855949.222851, 1488855949.222851, -0.722778, +0.091431, -0.094849, -21.938965, +48.796398, +113.856247 
1488855949.226625, 1488855949.226625, -0.785156, +0.149780, -0.094849, -21.938965, +48.796398, +113.856247 
1488855949.230377, 1488855949.230377, -0.785156, +0.149780, -0.094849, -36.801025, +57.982189, +119.486740 
1488855949.234143, 1488855949.234143, -0.785156, +0.149780, -0.094849, -36.801025, +57.982189, +119.486740 
1488855949.237895, 1488855949.237895, -0.785156, +0.149780, -0.094849, -36.801025, +57.982189, +119.486740 
1488855949.241646, 1488855949.241646, -0.785156, +0.149780, -0.094849, -53.250000, +66.771255, +122.965744 
1488855949.245554, 1488855949.245554, -0.934204, +0.085327, -0.075439, -53.250000, +66.771255, +122.965744 
1488855949.249318, 1488855949.249318, -0.934204, +0.085327, -0.075439, -53.250000, +66.771255, +122.965744 
1488855949.253186, 1488855949.253186, -0.934204, +0.085327, -0.075439, -66.723511, +73.668228, +124.857834 
1488855949.256948, 1488855949.256948, -0.934204, +0.085327, -0.075439, -66.723511, +73.668228, +124.857834 
1488855949.260703, 1488855949.260703, -0.934204, +0.085327, -0.075439, -66.723511, +73.668228, +124.857834 
1488855949.264658, 1488855949.264658, -1.096924, -0.007812, -0.091309, -75.680420, +78.963028, +127.268723 
1488855949.269130, 1488855949.269130, -1.096924, -0.007812, -0.091309, -75.680420, +78.963028, +127.268723 
1488855949.272878, 1488855949.272878, -1.096924, -0.007812, -0.091309, -75.680420, +78.963028, +131.174973 
1488855949.276705, 1488855949.276705, -1.096924, -0.007812, -0.091309, -80.105469, +81.206070, +130.961349 
1488855949.280447, 1488855949.280447, -1.096924, -0.007812, -0.091309, -80.105469, +81.206070, +130.961349 
1488855949.284248, 1488855949.284248, -1.229858, -0.048462, -0.118408, -80.105469, +81.206070, +134.425095 
1488855949.287990, 1488855949.287990, -1.229858, -0.048462, -0.118408, -81.295654, +81.328140, +134.425095 
1488855949.291733, 1488855949.291733, -1.229858, -0.048462, -0.118408, -81.295654, +81.328140, +134.425095 
1488855949.295480, 1488855949.295480, -1.229858, -0.048462, -0.118408, -85.201904, +80.397354, +136.973312 
1488855949.299227, 1488855949.299227, -1.229858, -0.048462, -0.118408, -84.393188, +80.397354, +136.973312 
1488855949.303015, 1488855949.303015, -1.323608, -0.041138, -0.141113, -84.393188, +80.397354, +136.973312 
1488855949.306764, 1488855949.306764, -1.341187, -0.041138, -0.141113, -91.458008, +78.535782, +139.033249 
1488855949.310500, 1488855949.310500, -1.341187, -0.041138, -0.141113, -91.458008, +78.535782, +139.033249 
1488855949.314370, 1488855949.314370, -1.341187, -0.041138, -0.141113, -91.458008, +78.535782, +139.033249 
1488855949.318222, 1488855949.318222, -1.341187, -0.041138, -0.141113, -98.965332, +76.521622, +137.965134 
1488855949.321967, 1488855949.321967, -1.341187, -0.041138, -0.203613, -98.965332, +76.521622, +137.965134 
1488855949.325870, 1488855949.325870, -1.386108, -0.115723, -0.195801, -98.965332, +76.521622, +137.965134 
1488855949.329608, 1488855949.329608, -1.386108, -0.115723, -0.195801, -104.443237, +74.019180, +135.691574 
1488855949.333358, 1488855949.333358, -1.386108, -0.115723, -0.195801, -104.443237, +74.019180, +135.691574 
1488855949.337104, 1488855949.337104, -1.386108, -0.115723, -0.195801, -104.443237, +74.019180, +135.691574 
1488855949.340852, 1488855949.340852, -1.386108, -0.115723, -0.195801, -109.066650, +72.767960, +132.655075 
1488855949.344734, 1488855949.344734, -1.381836, -0.234253, -0.249756, -109.066650, +72.767960, +132.655075 
1488855949.348674, 1488855949.348674, -1.381836, -0.234253, -0.249756, -109.066650, +72.767960, +132.655075 
1488855949.352627, 1488855949.352627, -1.381836, -0.234253, -0.249756, -111.706421, +73.088394, +128.580978 
1488855949.356589, 1488855949.356589, -1.381836, -0.234253, -0.249756, -111.706421, +73.088394, +128.580978 
1488855949.360533, 1488855949.360533, -1.381836, -0.234253, -0.249756, -111.706421, +73.088394, +125.636032 
1488855949.364490, 1488855949.364490, -1.395142, -0.247437, -0.281616, -112.408325, +73.515640, +125.636032 
1488855949.368434, 1488855949.368434, -1.395142, -0.247437, -0.281616, -112.408325, +73.515640, +125.636032 
1488855949.372375, 1488855949.372375, -1.395142, -0.247437, -0.281616, -111.172363, +73.378311, +123.515060 
1488855949.376336, 1488855949.376336, -1.395142, -0.247437, -0.281616, -111.172363, +73.378311, +123.515060 
1488855949.380434, 1488855949.380434, -1.395142, -0.247437, -0.281616, -111.172363, +73.378311, +123.515060 
1488855949.384580, 1488855949.384580, -1.392578, -0.262573, -0.282104, -106.594727, +72.294937, +121.867111 
1488855949.388329, 1488855949.388329, -1.392578, -0.262573, -0.282104, -106.594727, +72.294937, +121.867111 
1488855949.392078, 1488855949.392078, -1.392578, -0.262573, -0.282104, -106.594727, +72.294937, +121.867111 
1488855949.395987, 1488855949.395987, -1.392578, -0.262573, -0.282104, -100.125000, +70.799576, +120.325974 
1488855949.399939, 1488855949.399939, -1.392578, -0.262573, -0.282104, -100.125000, +70.799576, +120.325974 
1488855949.403893, 1488855949.403893, -1.412231, -0.291016, -0.243530, -100.125000, +70.799576, +118.678024 
1488855949.407836, 1488855949.407836, -1.412231, -0.291016, -0.243530, -93.472168, +67.534195, +118.678024 
1488855949.411777, 1488855949.411777, -1.412231, -0.291016, -0.243530, -93.472168, +67.534195, +118.678024 
1488855949.415605, 1488855949.415605, -1.412231, -0.291016, -0.243530, -86.285278, +64.253555, +116.328171 
1488855949.419351, 1488855949.419351, -1.412231, -0.291016, -0.243530, -86.285278, +64.253555, +116.328171 
1488855949.423106, 1488855949.423106, -1.406128, -0.300537, -0.272095, -86.285278, +64.253555, +116.328171 
1488855949.426929, 1488855949.426929, -1.406128, -0.300537, -0.272095, -80.258057, +61.400158, +114.054611 
1488855949.430673, 1488855949.430673, -1.406128, -0.300537, -0.272095, -80.258057, +61.400158, +114.054611 
1488855949.434575, 1488855949.434575, -1.406128, -0.300537, -0.272095, -80.258057, +61.400158, +114.054611 
1488855949.438319, 1488855949.438319, -1.406128, -0.300537, -0.272095, -74.032471, +58.150036, +112.177780 
1488855949.442070, 1488855949.442070, -1.374878, -0.296509, -0.260132, -74.032471, +58.150036, +112.177780 
1488855949.446077, 1488855949.446077, -1.354614, -0.296509, -0.260132, -74.032471, +58.150036, +112.177780 
1488855949.450001, 1488855949.450001, -1.354614, -0.296509, -0.260132, -65.243408, +54.869396, +109.629562 
1488855949.453937, 1488855949.453937, -1.354614, -0.296509, -0.260132, -65.243408, +54.869396, +109.629562 
1488855949.457854, 1488855949.457854, -1.354614, -0.296509, -0.260132, -65.243408, +54.869396, +105.723312 
1488855949.461768, 1488855949.461768, -1.354614, -0.264038, -0.270630, -57.430908, +52.077038, +106.242111 
1488855949.465812, 1488855949.465812, -1.320312, -0.264038, -0.270630, -57.430908, +52.077038, +106.242111 
1488855949.469737, 1488855949.469737, -1.320312, -0.264038, -0.270630, -49.618408, +50.139172, +103.098801 
1488855949.473671, 1488855949.473671, -1.320312, -0.264038, -0.270630, -49.832031, +50.139172, +103.098801 
1488855949.477594, 1488855949.477594, -1.320312, -0.264038, -0.270630, -49.832031, +50.139172, +103.098801 
1488855949.481513, 1488855949.481513, -1.320312, -0.245850, -0.252319, -41.378662, +47.575695, +99.848679 
1488855949.485544, 1488855949.485544, -1.259277, -0.245850, -0.252319, -41.378662, +47.575695, +99.848679 
1488855949.489467, 1488855949.489467, -1.259277, -0.245850, -0.252319, -41.378662, +47.575695, +99.848679 
1488855949.493389, 1488855949.493389, -1.259277, -0.245850, -0.252319, -33.672974, +45.164806, +96.796921 
1488855949.497310, 1488855949.497310, -1.259277, -0.245850, -0.252319, -33.672974, +45.164806, +96.796921 
1488855949.501412, 1488855949.501412, -1.259277, -0.213257, -0.237061, -33.672974, +45.164806, +96.796921 
1488855949.505489, 1488855949.505489, -1.209839, -0.213257, -0.237061, -26.043579, +44.066174, +93.928268 
1488855949.509409, 1488855949.509409, -1.209839, -0.213257, -0.237061, -26.043579, +44.066174, +93.928268 
1488855949.513339, 1488855949.513339, -1.209839, -0.213257, -0.237061, -18.231079, +43.074352, +90.830734 
1488855949.517260, 1488855949.517260, -1.209839, -0.213257, -0.237061, -18.154785, +43.074352, +90.830734 
1488855949.521181, 1488855949.521181, -1.209839, -0.205078, -0.207764, -18.154785, +43.074352, +90.830734 
1488855949.525131, 1488855949.525131, -1.231812, -0.205078, -0.207764, -12.310670, +42.219860, +87.046555 
1488855949.529027, 1488855949.529027, -1.231812, -0.205078, -0.207764, -12.310670, +42.219860, +87.046555 
1488855949.532922, 1488855949.532922, -1.231812, -0.205078, -0.207764, -12.310670, +42.219860, +87.046555 
1488855949.536747, 1488855949.536747, -1.231812, -0.205078, -0.207764, -6.664918, +41.258556, +82.468918 
1488855949.540494, 1488855949.540494, -1.231812, -0.205078, -0.239014, -6.664918, +41.258556, +82.468918 
1488855949.544267, 1488855949.544267, -1.223755, -0.146606, -0.234863, -6.664918, +41.258556, +82.468918 
1488855949.548013, 1488855949.548013, -1.223755, -0.146606, -0.234863, -2.041505, +38.695080, +77.448776 
1488855949.551759, 1488855949.551759, -1.223755, -0.146606, -0.234863, -2.041505, +38.695080, +77.448776 
1488855949.555674, 1488855949.555674, -1.223755, -0.146606, -0.234863, -2.041505, +38.695080, +77.448776 
1488855949.559423, 1488855949.559423, -1.223755, -0.146606, -0.234863, +1.788451, +35.979015, +72.382858 
1488855949.563345, 1488855949.563345, -1.187500, -0.128052, -0.190063, +1.788451, +35.979015, +72.382858 
1488855949.567290, 1488855949.567290, -1.187500, -0.128052, -0.190063, +1.788451, +32.072765, +66.691330 
1488855949.571235, 1488855949.571235, -1.187500, -0.128052, -0.190063, +6.976439, +32.667858, +66.691330 
1488855949.575192, 1488855949.575192, -1.187500, -0.128052, -0.190063, +6.976439, +32.667858, +66.691330 
1488855949.579131, 1488855949.579131, -1.187500, -0.128052, -0.190063, +13.263061, +29.616100, +60.572559 
1488855949.583081, 1488855949.583081, -1.206543, -0.164185, -0.157959, +13.263061, +29.616100, +60.572559 
1488855949.586829, 1488855949.586829, -1.206543, -0.164185, -0.157959, +13.263061, +29.616100, +60.572559 
1488855949.590574, 1488855949.590574, -1.206543, -0.164185, -0.157959, +21.685913, +25.969250, +55.247242 
1488855949.594396, 1488855949.594396, -1.206543, -0.164185, -0.157959, +21.685913, +25.969250, +55.247242 
1488855949.598342, 1488855949.598342, -1.206543, -0.164185, -0.157959, +21.685913, +25.969250, +55.247242 
1488855949.602281, 1488855949.602281, -1.202393, -0.078979, -0.144043, +29.361084, +21.544201, +50.486500 
1488855949.606239, 1488855949.606239, -1.202393, -0.078979, -0.144043, +29.361084, +21.544201, +50.486500 
1488855949.610188, 1488855949.610188, -1.202393, -0.078979, -0.144043, +29.361084, +21.544201, +50.486500 
1488855949.614256, 1488855949.614256, -1.202393, -0.078979, -0.144043, +34.030273, +16.905529, +45.100147 
1488855949.618198, 1488855949.618198, -1.202393, -0.078979, -0.144043, +34.030273, +16.905529, +45.100147 
1488855949.622205, 1488855949.622205, -1.199097, -0.036499, -0.122925, +37.936523, +12.602551, +37.699635 
1488855949.626413, 1488855949.626413, -1.199097, -0.036499, -0.122925, +36.456421, +12.602551, +37.699635 
1488855949.630356, 1488855949.630356, -1.199097, -0.036499, -0.122925, +36.456421, +12.602551, +37.699635 
1488855949.634249, 1488855949.634249, -1.199097, -0.036499, -0.122925, +36.334351, +8.497937, +28.498585 
1488855949.637997, 1488855949.637997, -1.199097, -0.036499, -0.122925, +36.334351, +8.497937, +28.498585 
1488855949.641742, 1488855949.641742, -1.238403, +0.037231, -0.103271, +36.334351, +8.497937, +28.498585 
1488855949.645627, 1488855949.645627, -1.238403, +0.037231, -0.103271, +33.267334, +4.194959, +17.695362 
1488855949.649572, 1488855949.649572, -1.238403, +0.037231, -0.103271, +33.267334, +4.194959, +17.695362 
1488855949.653512, 1488855949.653512, -1.238403, +0.037231, -0.103271, +33.267334, +4.194959, +17.695362 
1488855949.657258, 1488855949.657258, -1.238403, +0.037231, -0.103271, +27.804688, -2.045886, +5.289966 
1488855949.661003, 1488855949.661003, -1.281372, +0.055908, +0.018677, +27.804688, -2.045886, +5.289966 
1488855949.664800, 1488855949.664800, -1.281372, +0.055908, +0.018677, +27.804688, -2.045886, -8.091992 
1488855949.669029, 1488855949.669029, -1.281372, +0.055908, +0.018677, +19.793823, -8.851306, -8.091992 
1488855949.672769, 1488855949.672769, -1.281372, +0.055908, +0.018677, +19.793823, -8.851306, -8.091992 
1488855949.676587, 1488855949.676587, -1.281372, +0.055908, +0.018677, +8.075072, -14.909045, -21.687572 
1488855949.680326, 1488855949.680326, -1.250122, +0.118408, +0.019165, +10.501220, -14.909045, -21.687572 
1488855949.684093, 1488855949.684093, -1.258789, +0.118408, +0.019165, +10.501220, -14.909045, -21.687572 
1488855949.687837, 1488855949.687837, -1.258789, +0.118408, +0.019165, +1.864745, -19.959705, -33.894604 
1488855949.691581, 1488855949.691581, -1.258789, +0.118408, +0.019165, +1.864745, -19.959705, -33.894604 
1488855949.695388, 1488855949.695388, -1.258789, +0.118408, +0.019165, +1.864745, -19.959705, -33.894604 
1488855949.699128, 1488855949.699128, -1.258789, +0.118408, -0.199585, -7.565187, -21.867054, -41.966503 
1488855949.702870, 1488855949.702870, -1.069092, +0.526978, -0.210571, -7.565187, -21.867054, -41.966503 
1488855949.706619, 1488855949.706619, -1.069092, +0.526978, -0.210571, -7.565187, -21.867054, -41.966503 
1488855949.710363, 1488855949.710363, -1.069092, +0.526978, -0.210571, -19.283936, -20.249622, -43.736523 
1488855949.714230, 1488855949.714230, -1.069092, +0.526978, -0.210571, -19.283936, -20.249622, -43.736523 
1488855949.717983, 1488855949.717983, -1.069092, +0.526978, -0.210571, -19.283936, -20.249622, -43.736523 
1488855949.721738, 1488855949.721738, -0.807739, +1.217773, -0.746582, -33.276245, -13.581531, -38.701122 
1488855949.725521, 1488855949.725521, -0.807739, +1.217773, -0.746582, -33.276245, -13.581531, -38.701122 
1488855949.729275, 1488855949.729275, -0.807739, +1.217773, -0.746582, -33.276245, -13.581531, -38.701122 
1488855949.733023, 1488855949.733023, -0.807739, +1.217773, -0.746582, -45.162842, -4.639880, -23.228710 
1488855949.736969, 1488855949.736969, -0.807739, +1.217773, -0.746582, -45.162842, -4.639880, -23.228710 
1488855949.740907, 1488855949.740907, -0.859741, +0.916992, -0.502808, -45.162842, -4.639880, -23.228710 
1488855949.744894, 1488855949.744894, -0.859741, +0.916992, -0.502808, -33.611938, +6.438001, -2.217358 
1488855949.748835, 1488855949.748835, -0.859741, +0.916992, -0.502808, -33.611938, +6.438001, -2.217358 
1488855949.752774, 1488855949.752774, -0.859741, +0.916992, -0.502808, -33.611938, +8.223279, -3.819531 
1488855949.756548, 1488855949.756548, -0.859741, +0.916992, -0.502808, -27.905151, +8.223279, -3.819531 
1488855949.760290, 1488855949.760290, -1.274292, -0.133301, -0.210205, -27.905151, +8.223279, -3.819531 
1488855949.764195, 1488855949.764195, -1.274292, -0.133301, -0.210205, -27.371094, +1.250012, -18.971508 
1488855949.767951, 1488855949.767951, -1.274292, -0.133301, -0.210205, -27.371094, +1.250012, -18.971508 
1488855949.771761, 1488855949.771761, -1.274292, -0.133301, -0.210205, -27.371094, +1.250012, -18.971508 
1488855949.775691, 1488855949.775691, -1.274292, -0.133301, -0.210205, -27.874634, -6.242053, -28.492992 
1488855949.779738, 1488855949.779738, -1.097290, +0.377441, -0.520752, -27.874634, -6.242053, -28.492992 
1488855949.783754, 1488855949.783754, -1.097290, +0.377441, -0.520752, -27.874634, -6.242053, -28.492992 
1488855949.787660, 1488855949.787660, -1.097290, +0.377441, -0.520752, -24.426147, -8.591907, -28.401440 
1488855949.791410, 1488855949.791410, -1.097290, +0.377441, -0.520752, -24.426147, -8.591907, -28.401440 
1488855949.795219, 1488855949.795219, -1.097290, +0.377441, -0.520752, -24.426147, -8.591907, -28.401440 
1488855949.798961, 1488855949.798961, -1.097290, +0.627441, -0.484131, -14.996217, -5.296008, -24.006908 
1488855949.802707, 1488855949.802707, -0.950073, +0.633911, -0.484131, -14.996217, -5.296008, -24.006908 
1488855949.806454, 1488855949.806454, -0.950073, +0.633911, -0.484131, -14.996217, -5.296008, -20.100658 
1488855949.810196, 1488855949.810196, -0.950073, +0.633911, -0.484131, -9.091065, -0.779407, -21.977489 
1488855949.813939, 1488855949.813939, -0.950073, +0.633911, -0.484131, -9.091065, -0.779407, -21.977489 
1488855949.817685, 1488855949.817685, -0.950073, +0.633911, -0.484131, -9.091065, -0.779407, -25.883739 
1488855949.821423, 1488855949.821423, -1.081665, +0.383179, -0.380371, -16.400024, +1.372083, -25.883739 
1488855949.825211, 1488855949.825211, -1.081665, +0.383179, -0.380371, -16.400024, +1.372083, -25.883739 
1488855949.828951, 1488855949.828951, -1.081665, +0.383179, -0.380371, -16.400024, +2.043469, -32.979076 
1488855949.832689, 1488855949.832689, -1.081665, +0.383179, -0.380371, -29.293701, +2.043469, -32.979076 
1488855949.836560, 1488855949.836560, -1.081665, +0.383179, -0.380371, -29.293701, +2.043469, -32.979076 
1488855949.840307, 1488855949.840307, -1.096313, +0.290527, -0.457031, -38.342163, +2.562268, -38.991039 
1488855949.844220, 1488855949.844220, -1.096313, +0.290527, -0.457031, -38.342163, +2.562268, -38.991039 
1488855949.848160, 1488855949.848160, -1.096313, +0.290527, -0.457031, -38.342163, +2.562268, -38.991039 
1488855949.852104, 1488855949.852104, -1.096313, +0.290527, -0.457031, -38.845703, +2.684339, -40.761059 
1488855949.855940, 1488855949.855940, -1.096313, +0.290527, -0.457031, -38.845703, +2.684339, -40.761059 
1488855949.859687, 1488855949.859687, -1.080200, +0.217896, -0.426636, -38.845703, +2.684339, -40.761059 
1488855949.863505, 1488855949.863505, -1.080200, +0.217896, -0.426636, -32.360718, +3.782971, -41.508739 
1488855949.867456, 1488855949.867456, -1.080200, +0.217896, -0.426636, -32.360718, +3.782971, -41.508739 
1488855949.871391, 1488855949.871391, -1.080200, +0.217896, -0.426636, -32.360718, +3.782971, -41.508739 
1488855949.875232, 1488855949.875232, -1.080200, +0.217896, -0.426636, -24.105713, +3.950818, -43.202465 
1488855949.878981, 1488855949.878981, -1.127686, +0.233765, -0.336060, -24.105713, +3.950818, -43.202465 
1488855949.882904, 1488855949.882904, -1.127686, +0.233765, -0.336060, -24.105713, +3.950818, -43.812817 
1488855949.886857, 1488855949.886857, -1.127686, +0.233765, -0.336060, -18.841431, +1.890882, -43.812817 
1488855949.891277, 1488855949.891277, -1.127686, +0.233765, -0.336060, -18.841431, +1.890882, -43.812817 
1488855949.895054, 1488855949.895054, -1.127686, +0.233765, -0.336060, -13.943360, -0.291125, -42.103832 
1488855949.898800, 1488855949.898800, -1.103149, +0.208496, -0.324463, -13.943360, -0.291125, -42.103832 
1488855949.902542, 1488855949.902542, -1.103149, +0.208496, -0.324463, -13.943360, -0.291125, -42.103832 
1488855949.906329, 1488855949.906329, -1.103149, +0.208496, -0.324463, -6.817506, -1.008288, -39.815014 
1488855949.910067, 1488855949.910067, -1.103149, +0.208496, -0.324463, -6.817506, -1.008288, -39.815014 
1488855949.913928, 1488855949.913928, -1.103149, +0.208496, -0.324463, -6.817506, -1.008288, -39.815014 
1488855949.917660, 1488855949.917660, -1.103149, +0.208496, -0.341675, +0.323607, -1.130359, -38.868969 
1488855949.921397, 1488855949.921397, -1.062622, +0.250732, -0.341675, +0.323607, -1.130359, -38.868969 
1488855949.925184, 1488855949.925184, -1.062622, +0.250732, -0.341675, +0.323607, -1.130359, -38.868969 
1488855949.928926, 1488855949.928926, -1.062622, +0.250732, -0.341675, +1.605346, -0.108020, -39.830273 
1488855949.932669, 1488855949.932669, -1.062622, +0.250732, -0.341675, +1.605346, -0.108020, -39.830273 
1488855949.936497, 1488855949.936497, -1.062622, +0.250732, -0.341675, +1.605346, -0.108020, -39.830273 
1488855949.940249, 1488855949.940249, -1.026855, +0.362427, -0.321899, -3.307984, -0.046985, -41.386669 
1488855949.944147, 1488855949.944147, -1.026855, +0.362427, -0.321899, -3.307984, -0.046985, -41.386669 
1488855949.947888, 1488855949.947888, -1.026855, +0.362427, -0.321899, -3.307984, -0.046985, -41.386669 
1488855949.951635, 1488855949.951635, -1.026855, +0.362427, -0.321899, -10.113404, +0.731214, -42.119091 
1488855949.955588, 1488855949.955588, -1.026855, +0.362427, -0.321899, -10.113404, +0.731214, -42.119091 
1488855949.959338, 1488855949.959338, -0.989624, +0.329590, -0.355713, -10.113404, +0.731214, -42.271679 
1488855949.963159, 1488855949.963159, -0.989624, +0.329590, -0.355713, -16.003296, +1.921399, -42.271679 
1488855949.967069, 1488855949.967069, -0.989624, +0.329590, -0.355713, -16.003296, +1.921399, -42.271679 
1488855949.971222, 1488855949.971222, -0.989624, +0.329590, -0.355713, -17.864868, +3.325208, -41.539257 
1488855949.975176, 1488855949.975176, -0.989624, +0.329590, -0.355713, -17.864868, +3.325208, -41.539257 
1488855949.979247, 1488855949.979247, -1.040405, +0.182739, -0.326172, -17.864868, +3.325208, -41.539257 
1488855949.983618, 1488855949.983618, -1.040405, +0.182739, -0.326172, -16.628906, +3.844007, -41.737621 
1488855949.987366, 1488855949.987366, -1.040405, +0.182739, -0.326172, -16.628906, +3.844007, -41.737621 
1488855949.991106, 1488855949.991106, -1.040405, +0.182739, -0.326172, -16.628906, +3.844007, -41.737621 
1488855949.994859, 1488855949.994859, -1.040405, +0.182739, -0.326172, -15.850709, +3.782971, -42.500561 
1488855949.998608, 1488855949.998608, -1.052856, +0.198608, -0.382690, -15.850709, +3.782971, -42.500561 
1488855950.002345, 1488855950.002345, -1.052856, +0.198608, -0.382690, -15.850709, +3.782971, -42.500561 
1488855950.006146, 1488855950.006146, -1.052856, +0.198608, -0.382690, -16.232178, +2.974256, -41.569775 
1488855950.009880, 1488855950.009880, -1.052856, +0.198608, -0.382690, -16.232178, +2.974256, -41.569775 
1488855950.013687, 1488855950.013687, -1.052856, +0.198608, -0.382690, -16.232178, +2.974256, -39.555614 
1488855950.017422, 1488855950.017422, -1.052856, +0.183228, -0.411499, -13.775514, +3.065808, -39.555614 
1488855950.021159, 1488855950.021159, -1.021851, +0.183228, -0.411499, -13.775514, +3.065808, -39.555614 
1488855950.025008, 1488855950.025008, -1.021851, +0.183228, -0.411499, -13.775514, +4.042371, -37.739819 
1488855950.028745, 1488855950.028745, -1.021851, +0.183228, -0.411499, -9.579347, +4.042371, -37.739819 
1488855950.032490, 1488855950.032490, -1.021851, +0.183228, -0.411499, -9.579347, +4.042371, -37.739819 
1488855950.036367, 1488855950.036367, -1.021851, +0.183228, -0.411499, -5.596803, +4.515393, -36.549633 
1488855950.040108, 1488855950.040108, -1.027588, +0.180908, -0.384155, -5.596803, +4.515393, -36.549633 
1488855950.043876, 1488855950.043876, -1.027588, +0.180908, -0.384155, -5.596803, +4.515393, -36.549633 
1488855950.047612, 1488855950.047612, -1.027588, +0.180908, -0.384155, -3.460572, +4.027112, -34.962719 
1488855950.051344, 1488855950.051344, -1.027588, +0.180908, -0.384155, -3.460572, +4.027112, -34.962719 
1488855950.055204, 1488855950.055204, -1.027588, +0.180908, -0.384155, -3.460572, +4.027112, -34.962719 
1488855950.059249, 1488855950.059249, -1.012695, +0.199463, -0.377319, -3.231690, +4.484876, -33.818310 
1488855950.063233, 1488855950.063233, -1.012695, +0.199463, -0.377319, -3.231690, +4.484876, -33.818310 
1488855950.066975, 1488855950.066975, -1.012695, +0.199463, -0.377319, -3.231690, +4.484876, -33.818310 
1488855950.070717, 1488855950.070717, -1.012695, +0.199463, -0.377319, -3.445313, +6.148084, -33.833569 
1488855950.074596, 1488855950.074596, -1.012695, +0.199463, -0.377319, -3.445313, +6.148084, -33.833569 
1488855950.078332, 1488855950.078332, -1.049194, +0.248169, -0.338501, -3.445313, +6.148084, -33.833569 
1488855950.082078, 1488855950.082078, -1.049194, +0.248169, -0.338501, -6.634400, +7.094129, -34.077709 
1488855950.085921, 1488855950.085921, -1.049194, +0.248169, -0.338501, -6.634400, +7.094129, -34.077709 
1488855950.089803, 1488855950.089803, -1.049194, +0.248169, -0.338501, -6.634400, +7.094129, -34.123486 
1488855950.093584, 1488855950.093584, -1.049194, +0.248169, -0.338501, -11.212037, +8.024915, -34.123486 
1488855950.097529, 1488855950.097529, -1.058105, +0.167847, -0.317261, -11.212037, +8.024915, -34.123486 
1488855950.101478, 1488855950.101478, -1.058105, +0.167847, -0.317261, -14.507936, +8.986218, -34.001415 
1488855950.105424, 1488855950.105424, -1.058105, +0.167847, -0.317261, -14.507936, +8.986218, -34.001415 
1488855950.109369, 1488855950.109369, -1.058105, +0.167847, -0.317261, -14.507936, +8.986218, -34.001415 
1488855950.113325, 1488855950.113325, -1.058105, +0.167847, -0.317261, -14.919923, +9.688123, -32.490795 
1488855950.117266, 1488855950.117266, -1.063354, +0.151489, -0.419556, -14.919923, +9.688123, -32.490795 
1488855950.121203, 1488855950.121203, -1.063354, +0.151489, -0.419556, -14.919923, +9.688123, -32.490795 
1488855950.125055, 1488855950.125055, -1.063354, +0.151489, -0.419556, -12.478517, +9.978040, -29.057568 
1488855950.128811, 1488855950.128811, -1.063354, +0.151489, -0.419556, -12.478517, +9.978040, -29.057568 
1488855950.132556, 1488855950.132556, -1.063354, +0.151489, -0.419556, -12.478517, +9.978040, -29.057568 
1488855950.136439, 1488855950.136439, -1.063354, +0.020508, -0.423706, -9.167359, +10.847791, -26.158398 
1488855950.140190, 1488855950.140190, -1.096191, +0.020508, -0.423706, -9.167359, +10.847791, -26.158398 
1488855950.144069, 1488855950.144069, -1.096191, +0.020508, -0.423706, -9.167359, +10.847791, -26.158398 
1488855950.147989, 1488855950.147989, -1.096191, +0.020508, -0.423706, -5.627320, +10.252698, -24.495190 
1488855950.151899, 1488855950.151899, -1.096191, +0.020508, -0.423706, -5.627320, +10.252698, -24.495190 
1488855950.155819, 1488855950.155819, -1.096191, +0.020508, -0.448486, -1.721070, +8.146985, -22.740429 
1488855950.159730, 1488855950.159730, -1.064209, +0.077759, -0.448486, -4.086183, +8.146985, -22.740429 
1488855950.163685, 1488855950.163685, -1.064209, +0.077759, -0.448486, -4.086183, +8.146985, -22.740429 
1488855950.167597, 1488855950.167597, -1.064209, +0.077759, -0.448486, -2.178834, +6.727918, -20.115917 
1488855950.171506, 1488855950.171506, -1.064209, +0.077759, -0.448486, -2.178834, +6.727918, -20.115917 
1488855950.175465, 1488855950.175465, -1.064209, +0.077759, -0.448486, -2.178834, +6.727918, -20.115917 
1488855950.179378, 1488855950.179378, -1.068481, +0.094849, -0.456055, +0.583007, +5.751355, -18.040722 
1488855950.183305, 1488855950.183305, -1.068481, +0.094849, -0.456055, +0.583007, +5.751355, -18.040722 
1488855950.187212, 1488855950.187212, -1.068481, +0.094849, -0.456055, +0.583007, +5.751355, -18.040722 
1488855950.191129, 1488855950.191129, -1.068481, +0.094849, -0.456055, +2.963378, +4.271253, -16.820019 
1488855950.195066, 1488855950.195066, -1.068481, +0.094849, -0.456055, +2.963378, +4.271253, -16.820019 
1488855950.199063, 1488855950.199063, -1.068848, +0.136108, -0.514648, +2.963378, +0.365003, -15.523023 
1488855950.203255, 1488855950.203255, -1.068848, +0.136108, -0.514648, +4.596068, +1.951917, -15.523023 
1488855950.207201, 1488855950.207201, -1.068848, +0.136108, -0.514648, +4.596068, +1.951917, -15.523023 
1488855950.211249, 1488855950.211249, -1.068848, +0.136108, -0.514648, +7.922484, +0.288709, -14.699048 
1488855950.215203, 1488855950.215203, -1.068848, +0.136108, -0.514648, +7.922484, +0.288709, -14.699048 
1488855950.219145, 1488855950.219145, -1.071045, +0.054565, -0.502441, +7.922484, +0.288709, -14.699048 
1488855950.223094, 1488855950.223094, -1.071045, +0.054565, -0.502441, +12.667968, -2.228992, -14.653272 
1488855950.227039, 1488855950.227039, -1.071045, +0.054565, -0.502441, +12.667968, -2.228992, -14.653272 
1488855950.230981, 1488855950.230981, -1.071045, +0.054565, -0.502441, +12.667968, -2.228992, -14.653272 
1488855950.234854, 1488855950.234854, -1.071045, +0.054565, -0.502441, +16.269043, -4.685657, -13.661450 
1488855950.238604, 1488855950.238604, -1.044189, +0.111328, -0.506104, +16.269043, -4.685657, -13.661450 
1488855950.242355, 1488855950.242355, -1.044189, +0.111328, -0.506104, +16.269043, -4.685657, -12.486524 
1488855950.246154, 1488855950.246154, -1.044189, +0.111328, -0.506104, +20.495728, -7.462756, -12.486524 
1488855950.249895, 1488855950.249895, -1.044189, +0.111328, -0.506104, +20.495728, -7.462756, -12.486524 
1488855950.253794, 1488855950.253794, -1.044189, +0.111328, -0.506104, +24.401978, -8.820788, -11.784619 
1488855950.257545, 1488855950.257545, -1.048828, +0.085815, -0.497070, +24.356201, -8.820788, -11.784619 
1488855950.261298, 1488855950.261298, -1.048828, +0.085815, -0.497070, +24.356201, -8.820788, -11.784619 
1488855950.265253, 1488855950.265253, -1.048828, +0.085815, -0.497070, +27.453735, -9.736316, -11.632031 
1488855950.269197, 1488855950.269197, -1.048828, +0.085815, -0.497070, +27.453735, -9.736316, -11.632031 
1488855950.273135, 1488855950.273135, -1.048828, +0.085815, -0.497070, +27.453735, -9.736316, -11.632031 
1488855950.277075, 1488855950.277075, -1.045532, +0.124023, -0.395142, +29.040649, -11.506335, -11.204785 
1488855950.281019, 1488855950.281019, -1.045532, +0.124023, -0.395142, +29.040649, -11.506335, -11.204785 
1488855950.284881, 1488855950.284881, -1.045532, +0.124023, -0.395142, +29.040649, -11.506335, -11.204785 
1488855950.288633, 1488855950.288633, -1.045532, +0.124023, -0.395142, +28.796509, -13.245837, -11.174268 
1488855950.292378, 1488855950.292378, -1.045532, +0.124023, -0.395142, +28.796509, -13.245837, -11.174268 
1488855950.296346, 1488855950.296346, -1.047119, +0.094849, -0.419067, +28.796509, -13.245837, -11.174268 
1488855950.300290, 1488855950.300290, -1.047119, +0.094849, -0.419067, +28.872803, -12.681262, -12.013501 
1488855950.304273, 1488855950.304273, -1.047119, +0.094849, -0.419067, +28.872803, -12.681262, -12.013501 
1488855950.308218, 1488855950.308218, -1.047119, +0.094849, -0.419067, +28.872803, -11.567370, -11.830396 
1488855950.312162, 1488855950.312162, -1.047119, +0.094849, -0.419067, +28.811768, -11.567370, -11.830396 
1488855950.316122, 1488855950.316122, -1.062988, +0.123413, -0.403687, +28.811768, -11.567370, -11.830396 
1488855950.320189, 1488855950.320189, -1.062988, +0.123413, -0.403687, +28.537109, -11.948840, -10.487622 
1488855950.324247, 1488855950.324247, -1.062988, +0.123413, -0.403687, +28.537109, -11.948840, -10.487622 
1488855950.328203, 1488855950.328203, -1.062988, +0.123413, -0.403687, +28.537109, -11.948840, -10.487622 
1488855950.332145, 1488855950.332145, -1.062988, +0.123413, -0.403687, +28.338745, -12.238757, -9.572095 
1488855950.335949, 1488855950.335949, -1.045776, +0.046143, -0.358887, +28.338745, -12.238757, -9.572095 
1488855950.339691, 1488855950.339691, -1.045776, +0.046143, -0.358887, +28.338745, -12.238757, -9.572095 
1488855950.343500, 1488855950.343500, -1.045776, +0.046143, -0.358887, +29.406860, -12.467639, -9.282178 
1488855950.347444, 1488855950.347444, -1.045776, +0.046143, -0.358887, +29.406860, -12.467639, -9.282178 
1488855950.351377, 1488855950.351377, -1.045776, +0.046143, -0.358887, +29.406860, -12.467639, -8.427686 
1488855950.355226, 1488855950.355226, -1.045776, +0.099731, -0.389160, +27.621582, -11.491076, -8.427686 
1488855950.358973, 1488855950.358973, -1.033691, +0.099731, -0.389160, +27.621582, -11.491076, -8.427686 
1488855950.362831, 1488855950.362831, -1.033691, +0.099731, -0.389160, +25.698975, -11.109607, -7.542676 
1488855950.366591, 1488855950.366591, -1.033691, +0.099731, -0.389160, +25.698975, -11.109607, -7.542676 
1488855950.370339, 1488855950.370339, -1.033691, +0.099731, -0.389160, +25.698975, -11.109607, -7.542676 
1488855950.374184, 1488855950.374184, -1.033691, +0.099731, -0.357910, +23.898438, -10.575549, -7.664746 
1488855950.377925, 1488855950.377925, -1.073486, +0.015015, -0.345581, +23.898438, -10.575549, -7.664746 
1488855950.381674, 1488855950.381674, -1.073486, +0.015015, -0.345581, +23.898438, -10.575549, -7.664746 
1488855950.385514, 1488855950.385514, -1.073486, +0.015015, -0.345581, +23.852661, -10.773913, -7.618970 
1488855950.389263, 1488855950.389263, -1.073486, +0.015015, -0.345581, +23.852661, -10.773913, -7.618970 
1488855950.393024, 1488855950.393024, -1.073486, +0.015015, -0.345581, +23.852661, -10.773913, -7.618970 
1488855950.397110, 1488855950.397110, -1.025635, +0.067261, -0.396484, +24.127319, -10.972278, -6.932324 
1488855950.400857, 1488855950.400857, -1.025635, +0.067261, -0.396484, +24.127319, -10.972278, -6.932324 
1488855950.404824, 1488855950.404824, -1.025635, +0.067261, -0.396484, +24.127319, -10.972278, -6.932324 
1488855950.408758, 1488855950.408758, -1.025635, +0.067261, -0.396484, +24.218872, -10.178821, -6.398267 
1488855950.412756, 1488855950.412756, -1.025635, +0.067261, -0.396484, +24.218872, -10.178821, -6.398267 
1488855950.416569, 1488855950.416569, -1.085449, +0.045776, -0.390137, +24.218872, -10.178821, -5.681104 
1488855950.420307, 1488855950.420307, -1.085449, +0.045776, -0.390137, +23.928955, -10.178821, -5.681104 
1488855950.424112, 1488855950.424112, -1.085449, +0.045776, -0.390137, +23.928955, -10.178821, -5.681104 
1488855950.427853, 1488855950.427853, -1.085449, +0.045776, -0.390137, +23.928955, -10.178821, -5.314893 
1488855950.431595, 1488855950.431595, -1.085449, +0.045776, -0.390137, +23.715332, -9.644763, -5.314893 
1488855950.435388, 1488855950.435388, -1.063232, +0.067139, -0.368286, +23.715332, -9.644763, -5.314893 
1488855950.439127, 1488855950.439127, -1.063232, +0.067139, -0.368286, +22.036865, -9.553210, -4.628247 
1488855950.442871, 1488855950.442871, -1.063232, +0.067139, -0.368286, +22.036865, -9.553210, -4.628247 
1488855950.446609, 1488855950.446609, -1.063232, +0.067139, -0.368286, +22.036865, -9.553210, -4.628247 
1488855950.450336, 1488855950.450336, -1.063232, +0.067139, -0.368286, +21.167114, -10.392444, -5.711621 
1488855950.454192, 1488855950.454192, -1.063232, +0.031494, -0.386353, +21.167114, -10.392444, -5.711621 
1488855950.457943, 1488855950.457943, -1.062378, +0.031494, -0.386353, +21.167114, -10.392444, -5.711621 
1488855950.461684, 1488855950.461684, -1.062378, +0.031494, -0.386353, +20.541504, -11.170642, -7.069654 
1488855950.465645, 1488855950.465645, -1.062378, +0.031494, -0.386353, +20.541504, -11.170642, -7.069654 
1488855950.469588, 1488855950.469588, -1.062378, +0.031494, -0.386353, +20.541504, -11.170642, -7.069654 
1488855950.473532, 1488855950.473532, -1.062378, +0.031494, -0.421509, +19.610718, -11.201159, -7.191724 
1488855950.477282, 1488855950.477282, -1.079590, +0.037720, -0.421509, +19.610718, -11.201159, -7.191724 
1488855950.481031, 1488855950.481031, -1.079590, +0.037720, -0.421509, +19.610718, -11.201159, -7.191724 
1488855950.484905, 1488855950.484905, -1.079590, +0.037720, -0.421509, +19.687012, -12.086169, -7.329053 
1488855950.488822, 1488855950.488822, -1.079590, +0.037720, -0.421509, +19.687012, -12.086169, -7.329053 
1488855950.492740, 1488855950.492740, -1.079590, +0.037720, -0.421509, +19.687012, -12.086169, -7.802075 
1488855950.496879, 1488855950.496879, -1.072021, +0.011597, -0.397461, +20.419434, -13.398425, -7.802075 
1488855950.500824, 1488855950.500824, -1.072021, +0.011597, -0.397461, +20.419434, -13.398425, -7.802075 
1488855950.504776, 1488855950.504776, -1.072021, +0.011597, -0.397461, +22.082642, -14.817492, -7.817334 
1488855950.508725, 1488855950.508725, -1.072021, +0.011597, -0.397461, +22.082642, -14.817492, -7.817334 
1488855950.512778, 1488855950.512778, -1.072021, +0.011597, -0.397461, +22.082642, -14.817492, -7.817334 
1488855950.516729, 1488855950.516729, -1.039307, +0.108276, -0.459473, +22.189453, -14.420764, -7.618970 
1488855950.520833, 1488855950.520833, -1.039307, +0.108276, -0.459473, +22.189453, -14.420764, -7.618970 
1488855950.525115, 1488855950.525115, -1.039307, +0.108276, -0.459473, +22.189453, -14.420764, -7.618970 
1488855950.528872, 1488855950.528872, -1.039307, +0.108276, -0.459473, +20.694092, -14.954822, -9.358472 
1488855950.532622, 1488855950.532622, -1.039307, +0.108276, -0.459473, +20.694092, -14.954822, -9.358472 
1488855950.536560, 1488855950.536560, -1.083984, +0.082031, -0.408936, +20.694092, -18.861073, -12.425488 
1488855950.540509, 1488855950.540509, -1.083984, +0.082031, -0.408936, +17.459229, -16.587513, -12.425488 
1488855950.544506, 1488855950.544506, -1.083984, +0.082031, -0.408936, +17.459229, -16.587513, -12.425488 
1488855950.548450, 1488855950.548450, -1.083984, +0.082031, -0.408936, +15.246703, -17.777699, -14.561719 
1488855950.552396, 1488855950.552396, -1.083984, +0.082031, -0.408936, +15.246703, -17.777699, -14.561719 
1488855950.556195, 1488855950.556195, -1.049805, +0.015869, -0.356323, +15.246703, -17.777699, -14.561719 
1488855950.559947, 1488855950.559947, -1.049805, +0.015869, -0.356323, +16.253784, -18.693226, -15.568799 
1488855950.563711, 1488855950.563711, -1.049805, +0.015869, -0.356323, +16.253784, -18.693226, -15.568799 
1488855950.567465, 1488855950.567465, -1.049805, +0.015869, -0.356323, +16.253784, -18.693226, -15.568799 
1488855950.571224, 1488855950.571224, -1.049805, +0.015869, -0.356323, +18.557861, -19.303577, -15.141553 
1488855950.575149, 1488855950.575149, -1.089111, -0.000854, -0.374146, +18.557861, -19.303577, -15.141553 
1488855950.578911, 1488855950.578911, -1.089111, -0.000854, -0.374146, +18.557861, -19.303577, -15.141553 
1488855950.582663, 1488855950.582663, -1.089111, -0.000854, -0.374146, +19.473389, -19.730824, -15.355176 
1488855950.586724, 1488855950.586724, -1.089111, -0.000854, -0.374146, +19.473389, -19.730824, -15.355176 
1488855950.590667, 1488855950.590667, -1.089111, -0.000854, -0.374146, +19.473389, -19.730824, -16.270702 
1488855950.594619, 1488855950.594619, -1.066040, +0.044067, -0.356079, +17.443970, -19.440907, -16.270702 
1488855950.598563, 1488855950.598563, -1.066040, +0.044067, -0.356079, +17.443970, -19.440907, -16.270702 
1488855950.602511, 1488855950.602511, -1.066040, +0.044067, -0.356079, +13.690307, -20.051258, -17.613476 
1488855950.606500, 1488855950.606500, -1.066040, +0.044067, -0.356079, +13.690307, -20.051258, -17.613476 
1488855950.610454, 1488855950.610454, -1.066040, +0.044067, -0.356079, +13.690307, -20.051258, -17.613476 
1488855950.614400, 1488855950.614400, -1.087402, -0.012085, -0.376709, +11.538817, -20.600574, -19.093578 
1488855950.618345, 1488855950.618345, -1.087402, -0.012085, -0.376709, +11.538817, -20.600574, -19.093578 
1488855950.622292, 1488855950.622292, -1.087402, -0.012085, -0.376709, +11.538817, -20.600574, -19.093578 
1488855950.626240, 1488855950.626240, -1.087402, -0.012085, -0.376709, +11.660888, -20.875233, -19.520824 
1488855950.630184, 1488855950.630184, -1.087402, -0.012085, -0.376709, +11.660888, -20.875233, -19.520824 
1488855950.634140, 1488855950.634140, -1.078735, -0.033936, -0.381714, +11.660888, -20.875233, -19.520824 
1488855950.638089, 1488855950.638089, -1.078735, -0.033936, -0.381714, +12.683227, -21.546619, -18.803661 
1488855950.642200, 1488855950.642200, -1.078735, -0.033936, -0.381714, +12.683227, -21.546619, -18.803661 
1488855950.646400, 1488855950.646400, -1.078735, -0.033936, -0.381714, +13.705565, -22.172230, -18.879955 
1488855950.650340, 1488855950.650340, -1.078735, -0.033936, -0.381714, +13.705565, -22.172230, -18.879955 
1488855950.654296, 1488855950.654296, -1.089844, -0.006958, -0.383057, +13.705565, -22.172230, -18.879955 
1488855950.658246, 1488855950.658246, -1.089844, -0.006958, -0.383057, +13.919188, -23.286121, -19.185131 
1488855950.662306, 1488855950.662306, -1.089844, -0.006958, -0.383057, +13.919188, -23.286121, -19.185131 
1488855950.666303, 1488855950.666303, -1.089844, -0.006958, -0.383057, +13.919188, -23.286121, -19.185131 
1488855950.670246, 1488855950.670246, -1.089844, -0.006958, -0.383057, +13.995482, -23.453968, -19.032543 
1488855950.674142, 1488855950.674142, -1.119141, -0.026733, -0.359863, +13.995482, -23.453968, -19.032543 
1488855950.677889, 1488855950.677889, -1.119141, -0.026733, -0.359863, +13.995482, -23.453968, -19.749706 
1488855950.681640, 1488855950.681640, -1.119141, -0.026733, -0.359863, +14.407470, -23.972767, -19.749706 
1488855950.685425, 1488855950.685425, -1.119141, -0.026733, -0.359863, +14.407470, -23.972767, -19.749706 
1488855950.689178, 1488855950.689178, -1.119141, -0.026733, -0.359863, +14.407470, -23.972767, -20.894115 
1488855950.692929, 1488855950.692929, -1.128540, -0.002563, -0.377686, +14.376952, -25.483387, -20.894115 
1488855950.696844, 1488855950.696844, -1.128540, -0.002563, -0.377686, +14.376952, -25.483387, -20.894115 
1488855950.700600, 1488855950.700600, -1.128540, -0.002563, -0.377686, +14.437987, -26.292103, -21.641796 
1488855950.704445, 1488855950.704445, -1.128540, -0.002563, -0.377686, +14.437987, -26.292103, -21.641796 
1488855950.708390, 1488855950.708390, -1.128540, -0.002563, -0.377686, +14.437987, -26.292103, -21.641796 
1488855950.712344, 1488855950.712344, -1.128540, -0.054443, -0.339722, +14.651610, -26.643055, -21.931713 
1488855950.716298, 1488855950.716298, -1.136108, -0.054443, -0.339722, +14.651610, -26.643055, -21.931713 
1488855950.720249, 1488855950.720249, -1.136108, -0.054443, -0.339722, +14.651610, -26.643055, -21.931713 
1488855950.724143, 1488855950.724143, -1.136108, -0.054443, -0.339722, +15.734984, -27.589100, -22.648876 
1488855950.727898, 1488855950.727898, -1.136108, -0.054443, -0.339722, +15.734984, -27.589100, -22.648876 
1488855950.731651, 1488855950.731651, -1.136108, -0.054443, -0.331177, +15.734984, -27.589100, -22.648876 
1488855950.735539, 1488855950.735539, -1.119873, -0.034790, -0.331177, +16.711548, -28.580921, -23.701733 
1488855950.739488, 1488855950.739488, -1.119873, -0.034790, -0.331177, +16.711548, -28.580921, -23.701733 
1488855950.743479, 1488855950.743479, -1.119873, -0.034790, -0.331177, +16.711548, -28.580921, -24.006908 
1488855950.747430, 1488855950.747430, -1.119873, -0.034790, -0.331177, +16.940430, -29.145496, -24.006908 
1488855950.751372, 1488855950.751372, -1.119873, -0.034790, -0.272217, +16.940430, -29.145496, -24.006908 
1488855950.755327, 1488855950.755327, -1.118286, -0.068115, -0.272217, +16.711548, -30.167835, -24.159496 
1488855950.759424, 1488855950.759424, -1.118286, -0.068115, -0.272217, +16.711548, -30.167835, -24.159496 
1488855950.763767, 1488855950.763767, -1.118286, -0.068115, -0.272217, +16.711548, -30.167835, -24.159496 
1488855950.767711, 1488855950.767711, -1.118286, -0.068115, -0.272217, +16.681030, -31.434315, -24.861401 
1488855950.771656, 1488855950.771656, -1.118286, -0.076904, -0.313477, +16.681030, -31.434315, -24.861401 
1488855950.775488, 1488855950.775488, -1.149658, -0.076904, -0.313477, +16.681030, -31.434315, -24.861401 
1488855950.779240, 1488855950.779240, -1.149658, -0.076904, -0.313477, +16.681030, -32.197254, -25.624340 
1488855950.783039, 1488855950.783039, -1.149658, -0.076904, -0.313477, +16.681030, -32.197254, -25.624340 
1488855950.786988, 1488855950.786988, -1.149658, -0.076904, -0.313477, +16.681030, -32.197254, -26.173656 
1488855950.790935, 1488855950.790935, -1.149658, -0.076904, -0.282227, +16.009644, -32.410877, -26.173656 
1488855950.794804, 1488855950.794804, -1.129150, -0.105225, -0.288696, +16.009644, -32.410877, -26.173656 
1488855950.798555, 1488855950.798555, -1.129150, -0.105225, -0.288696, +15.582397, -33.478992, -26.310986 
1488855950.802313, 1488855950.802313, -1.129150, -0.105225, -0.288696, +15.582397, -33.478992, -26.310986 
1488855950.806071, 1488855950.806071, -1.129150, -0.105225, -0.288696, +15.582397, -33.478992, -26.310986 
1488855950.809936, 1488855950.809936, -1.129150, -0.105225, -0.288696, +15.750243, -34.409779, -25.914257 
1488855950.813786, 1488855950.813786, -1.114136, -0.129761, -0.322021, +15.750243, -34.409779, -25.914257 
1488855950.817542, 1488855950.817542, -1.114136, -0.129761, -0.322021, +15.750243, -34.409779, -25.914257 
1488855950.821293, 1488855950.821293, -1.114136, -0.129761, -0.322021, +15.994384, -34.608143, -25.532787 
1488855950.825273, 1488855950.825273, -1.114136, -0.129761, -0.322021, +15.994384, -34.608143, -25.532787 
1488855950.829221, 1488855950.829221, -1.114136, -0.129761, -0.322021, +15.994384, -34.608143, -25.532787 
1488855950.833211, 1488855950.833211, -1.146240, -0.116333, -0.295898, +15.292480, -35.065907, -25.578564 
1488855950.837149, 1488855950.837149, -1.146240, -0.116333, -0.295898, +15.292480, -35.065907, -25.578564 
1488855950.841102, 1488855950.841102, -1.146240, -0.116333, -0.295898, +15.292480, -35.065907, -25.868481 
1488855950.845092, 1488855950.845092, -1.146240, -0.116333, -0.295898, +14.621093, -35.249012, -25.868481 
1488855950.849033, 1488855950.849033, -1.146240, -0.116333, -0.295898, +14.621093, -35.249012, -25.868481 
1488855950.852984, 1488855950.852984, -1.134766, -0.119873, -0.229492, +15.948607, -36.378162, -25.593822 
1488855950.856735, 1488855950.856735, -1.134766, -0.119873, -0.229492, +15.948607, -36.378162, -25.593822 
1488855950.860484, 1488855950.860484, -1.134766, -0.119873, -0.229492, +15.948607, -36.378162, -25.593822 
1488855950.864337, 1488855950.864337, -1.134766, -0.119873, -0.229492, +16.436890, -37.629383, -25.746410 
1488855950.868282, 1488855950.868282, -1.134766, -0.119873, -0.229492, +16.436890, -37.629383, -25.746410 
1488855950.872220, 1488855950.872220, -1.149292, -0.095703, -0.191528, +16.436890, -37.629383, -25.746410 
1488855950.876180, 1488855950.876180, -1.149292, -0.095703, -0.191528, +15.704467, -38.193958, -25.197094 
1488855950.880172, 1488855950.880172, -1.149292, -0.095703, -0.191528, +15.704467, -38.193958, -25.197094 
1488855950.884498, 1488855950.884498, -1.149292, -0.095703, -0.191528, +15.704467, -38.193958, -25.197094 
1488855950.888444, 1488855950.888444, -1.149292, -0.095703, -0.191528, +13.797118, -39.262074, -26.005810 
1488855950.892389, 1488855950.892389, -1.170410, -0.101929, -0.213989, +13.797118, -39.262074, -26.005810 
1488855950.896348, 1488855950.896348, -1.170410, -0.101929, -0.213989, +13.797118, -39.613026, -26.402538 
1488855950.900295, 1488855950.900295, -1.170410, -0.101929, -0.213989, +11.782958, -39.613026, -26.402538 
1488855950.904290, 1488855950.904290, -1.170410, -0.101929, -0.213989, +11.782958, -39.613026, -26.402538 
1488855950.908241, 1488855950.908241, -1.170410, -0.101929, -0.213989, +10.623290, -39.826649, -27.211254 
1488855950.912190, 1488855950.912190, -1.170898, -0.189941, -0.213867, +10.623290, -39.826649, -27.211254 
1488855950.915994, 1488855950.915994, -1.170898, -0.189941, -0.213867, +10.623290, -39.826649, -27.211254 
1488855950.919747, 1488855950.919747, -1.170898, -0.189941, -0.213867, +11.050536, -40.375965, -28.111523 
1488855950.923508, 1488855950.923508, -1.170898, -0.189941, -0.213867, +11.050536, -40.375965, -28.111523 
1488855950.927254, 1488855950.927254, -1.170898, -0.189941, -0.213867, +11.050536, -40.375965, -28.111523 
1488855950.931012, 1488855950.931012, -1.149292, -0.146606, -0.245972, +12.667968, -41.322010, -28.782909 
1488855950.934920, 1488855950.934920, -1.149292, -0.146606, -0.245972, +12.667968, -41.322010, -28.782909 
1488855950.938676, 1488855950.938676, -1.149292, -0.146606, -0.245972, +12.667968, -41.322010, -28.782909 
1488855950.942426, 1488855950.942426, -1.149292, -0.146606, -0.245972, +14.087035, -40.986317, -28.569286 
1488855950.946266, 1488855950.946266, -1.149292, -0.146606, -0.245972, +14.087035, -40.986317, -28.569286 
1488855950.950013, 1488855950.950013, -1.149292, -0.146606, -0.202881, +14.087035, -40.986317, -28.569286 
1488855950.953859, 1488855950.953859, -1.184448, -0.180298, -0.202881, +14.132812, -41.688221, -29.423779 
1488855950.957706, 1488855950.957706, -1.184448, -0.180298, -0.202881, +14.132812, -41.688221, -29.423779 
1488855950.961462, 1488855950.961462, -1.184448, -0.180298, -0.202881, +14.132812, -42.100208, -30.186718 
1488855950.965350, 1488855950.965350, -1.184448, -0.180298, -0.202881, +15.414550, -42.100208, -30.186718 
1488855950.969339, 1488855950.969339, -1.184448, -0.180298, -0.202881, +15.414550, -42.100208, -30.186718 
1488855950.973092, 1488855950.973092, -1.164062, -0.151001, -0.205566, +17.184570, -42.084949, -30.476635 
1488855950.977038, 1488855950.977038, -1.164062, -0.151001, -0.205566, +17.184570, -42.084949, -30.476635 
1488855950.980980, 1488855950.980980, -1.164062, -0.151001, -0.205566, +17.184570, -42.084949, -30.476635 
1488855950.984935, 1488855950.984935, -1.164062, -0.151001, -0.205566, +19.473389, -42.634266, -30.751293 
1488855950.988874, 1488855950.988874, -1.164062, -0.151001, -0.205566, +19.473389, -42.634266, -30.751293 
1488855950.992825, 1488855950.992825, -1.171753, -0.170044, -0.171265, +19.473389, -42.634266, -30.751293 
1488855950.996782, 1488855950.996782, -1.171753, -0.170044, -0.171265, +20.953491, -43.580311, -32.078808 
1488855951.000727, 1488855951.000727, -1.171753, -0.170044, -0.171265, +20.953491, -43.580311, -32.078808 
1488855951.004603, 1488855951.004603, -1.171753, -0.170044, -0.171265, +20.953491, -43.580311, -34.276073 
1488855951.008348, 1488855951.008348, -1.171753, -0.170044, -0.171265, +22.921875, -44.358509, -34.276073 
1488855951.012094, 1488855951.012094, -1.187500, -0.087646, -0.167603, +22.921875, -44.358509, -34.276073 
1488855951.015938, 1488855951.015938, -1.187500, -0.087646, -0.167603, +22.921875, -45.548695, -36.336010 
1488855951.019690, 1488855951.019690, -1.187500, -0.087646, -0.167603, +24.798706, -45.548695, -36.336010 
1488855951.023607, 1488855951.023607, -1.187500, -0.087646, -0.167603, +24.798706, -45.548695, -36.336010 
1488855951.027551, 1488855951.027551, -1.187500, -0.087646, -0.167603, +24.432495, -47.013538, -38.716381 
1488855951.031496, 1488855951.031496, -1.215942, -0.072144, -0.150391, +24.432495, -47.013538, -38.716381 
1488855951.035486, 1488855951.035486, -1.215942, -0.072144, -0.150391, +24.432495, -47.013538, -38.716381 
1488855951.039435, 1488855951.039435, -1.215942, -0.072144, -0.150391, +25.592163, -48.280018, -41.173046 
1488855951.043388, 1488855951.043388, -1.215942, -0.072144, -0.150391, +25.592163, -48.280018, -41.173046 
1488855951.047337, 1488855951.047337, -1.215942, -0.072144, -0.150391, +25.592163, -48.280018, -41.173046 
1488855951.051281, 1488855951.051281, -1.269531, -0.043335, -0.136597, +26.217773, -49.149769, -44.224804 
1488855951.055122, 1488855951.055122, -1.269531, -0.043335, -0.136597, +26.217773, -49.149769, -44.224804 
1488855951.058872, 1488855951.058872, -1.269531, -0.043335, -0.136597, +26.217773, -49.149769, -44.224804 
1488855951.062625, 1488855951.062625, -1.269531, -0.043335, -0.136597, +27.057007, -51.224964, -46.559399 
1488855951.066569, 1488855951.066569, -1.269531, -0.043335, -0.136597, +27.057007, -51.224964, -46.559399 
1488855951.070515, 1488855951.070515, -1.296875, -0.060303, -0.121948, +27.057007, -52.415150, -48.710888 
1488855951.074504, 1488855951.074504, -1.296875, -0.060303, -0.121948, +29.910400, -52.415150, -48.710888 
1488855951.078454, 1488855951.078454, -1.296875, -0.060303, -0.121948, +29.910400, -52.415150, -48.710888 
1488855951.082470, 1488855951.082470, -1.296875, -0.060303, -0.121948, +31.970337, -54.459827, -51.854198 
1488855951.086414, 1488855951.086414, -1.296875, -0.060303, -0.121948, +31.970337, -54.459827, -51.854198 
1488855951.090366, 1488855951.090366, -1.340576, -0.021484, -0.148071, +31.970337, -54.459827, -51.854198 
1488855951.094325, 1488855951.094325, -1.340576, -0.021484, -0.148071, +35.144165, -56.504505, -54.234570 
1488855951.098273, 1488855951.098273, -1.340576, -0.021484, -0.148071, +35.144165, -56.504505, -54.234570 
1488855951.102214, 1488855951.102214, -1.340576, -0.021484, -0.148071, +35.144165, -56.504505, -54.234570 
1488855951.106022, 1488855951.106022, -1.340576, -0.021484, -0.148071, +38.684204, -58.533924, -55.394238 
1488855951.109889, 1488855951.109889, -1.341064, +0.003784, -0.175537, +38.684204, -58.533924, -55.394238 
1488855951.113686, 1488855951.113686, -1.341064, +0.003784, -0.175537, +38.684204, -58.533924, -55.897778 
1488855951.117436, 1488855951.117436, -1.341064, +0.003784, -0.175537, +39.218262, -61.158436, -55.897778 
1488855951.121186, 1488855951.121186, -1.341064, +0.003784, -0.175537, +39.218262, -61.158436, -55.897778 
1488855951.125097, 1488855951.125097, -1.341064, +0.003784, -0.175537, +35.312012, -63.462513, -56.920116 
1488855951.128850, 1488855951.128850, -1.341064, -0.027466, -0.166016, +36.776855, -63.462513, -56.920116 
1488855951.132611, 1488855951.132611, -1.280884, -0.021973, -0.166016, +36.776855, -63.462513, -56.920116 
1488855951.136651, 1488855951.136651, -1.280884, -0.021973, -0.166016, +32.809570, -65.629257, -59.086864 
1488855951.140595, 1488855951.140595, -1.280884, -0.021973, -0.166016, +32.809570, -65.629257, -59.086864 
1488855951.144559, 1488855951.144559, -1.280884, -0.021973, -0.166016, +32.809570, -65.629257, -59.086864 
1488855951.148509, 1488855951.148509, -1.280884, -0.021973, -0.224365, +24.844482, -65.583481, -61.253613 
1488855951.152452, 1488855951.152452, -1.153931, -0.111938, -0.224365, +24.844482, -65.583481, -61.253613 
1488855951.156247, 1488855951.156247, -1.153931, -0.111938, -0.224365, +24.844482, -65.583481, -61.253613 
1488855951.160002, 1488855951.160002, -1.153931, -0.111938, -0.224365, +15.277221, -63.004749, -64.488480 
1488855951.163792, 1488855951.163792, -1.153931, -0.111938, -0.224365, +15.277221, -63.004749, -64.488480 
1488855951.167713, 1488855951.167713, -1.153931, -0.111938, -0.224365, +15.277221, -63.004749, -68.394730 
1488855951.171636, 1488855951.171636, -1.092041, -0.305542, -0.215210, +3.115966, -58.594959, -69.035599 
1488855951.175571, 1488855951.175571, -1.092041, -0.305542, -0.215210, +3.115966, -58.594959, -69.035599 
1488855951.179494, 1488855951.179494, -1.092041, -0.305542, -0.215210, -4.696534, -52.521961, -71.873734 
1488855951.183604, 1488855951.183604, -1.092041, -0.305542, -0.215210, -7.977174, -52.521961, -71.873734 
1488855951.187488, 1488855951.187488, -1.092041, -0.305542, -0.215210, -7.977174, -52.521961, -71.873734 
1488855951.191466, 1488855951.191466, -1.032715, -0.513916, -0.239258, -14.507936, -46.525257, -72.758743 
1488855951.195780, 1488855951.195780, -1.032715, -0.513916, -0.239258, -14.507936, -46.525257, -72.758743 
1488855951.199705, 1488855951.199705, -1.032715, -0.513916, -0.239258, -14.507936, -46.525257, -72.758743 
1488855951.203914, 1488855951.203914, -1.032715, -0.513916, -0.239258, -14.248536, -39.765614, -70.790359 
1488855951.207668, 1488855951.207668, -1.032715, -0.513916, -0.239258, -14.248536, -39.765614, -70.790359 
1488855951.211414, 1488855951.211414, -0.871460, -0.556030, -0.209717, -14.248536, -39.765614, -63.740795 
1488855951.215336, 1488855951.215336, -0.871460, -0.556030, -0.209717, -8.526490, -30.961292, -63.740795 
1488855951.219275, 1488855951.219275, -0.871460, -0.556030, -0.209717, -8.526490, -30.961292, -63.740795 
1488855951.223254, 1488855951.223254, -0.871460, -0.556030, -0.209717, -0.088380, -23.209827, -49.183910 
1488855951.227002, 1488855951.227002, -0.871460, -0.556030, -0.209717, -0.088380, -23.209827, -49.183910 
1488855951.230754, 1488855951.230754, -0.753906, -0.144165, -0.369385, -0.088380, -23.209827, -49.183910 
1488855951.235216, 1488855951.235216, -0.753906, -0.144165, -0.369385, +10.577514, -19.196766, -30.934399 
1488855951.238964, 1488855951.238964, -0.753906, -0.144165, -0.369385, +10.577514, -19.196766, -30.934399 
1488855951.242707, 1488855951.242707, -0.753906, -0.144165, -0.369385, +10.577514, -19.196766, -30.934399 
1488855951.246450, 1488855951.246450, -0.753906, -0.144165, -0.369385, +20.465210, -15.717761, -11.036939 
1488855951.250197, 1488855951.250197, -0.550049, +0.281494, -0.282227, +20.465210, -15.717761, -11.036939 
1488855951.253952, 1488855951.253952, -0.550049, +0.281494, -0.282227, +20.465210, -15.717761, -11.036939 
1488855951.257804, 1488855951.257804, -0.550049, +0.281494, -0.282227, +28.216675, -12.406604, +9.074145 
1488855951.261551, 1488855951.261551, -0.550049, +0.281494, -0.282227, +28.216675, -12.406604, +9.074145 
1488855951.265304, 1488855951.265304, -0.550049, +0.281494, -0.282227, +28.216675, -12.406604, +9.074145 
1488855951.269051, 1488855951.269051, -0.568726, +0.230835, -0.079468, +31.543091, -7.859485, +26.530201 
1488855951.272792, 1488855951.272792, -0.568726, +0.230835, -0.079468, +31.543091, -7.859485, +26.530201 
1488855951.276558, 1488855951.276558, -0.568726, +0.230835, -0.079468, +31.543091, -7.859485, +26.530201 
1488855951.280309, 1488855951.280309, -0.568726, +0.230835, -0.079468, +27.926758, -1.588122, +40.644581 
1488855951.284199, 1488855951.284199, -0.568726, +0.230835, -0.079468, +27.926758, -1.588122, +40.644581 
1488855951.287952, 1488855951.287952, -0.568726, +0.015503, -0.062622, +27.926758, -1.588122, +53.812916 
1488855951.291699, 1488855951.291699, -0.687988, +0.015503, -0.062622, +20.098999, +5.079968, +53.812916 
1488855951.295648, 1488855951.295648, -0.687988, +0.015503, -0.062622, +20.098999, +5.079968, +53.812916 
1488855951.299562, 1488855951.299562, -0.687988, +0.015503, -0.062622, +12.408568, +10.985120, +66.492966 
1488855951.303491, 1488855951.303491, -0.687988, +0.015503, -0.062622, +12.408568, +10.985120, +66.492966 
1488855951.307265, 1488855951.307265, -0.687988, +0.046753, -0.089233, +12.408568, +10.985120, +66.492966 
1488855951.311229, 1488855951.311229, -0.664551, +0.042480, -0.089233, +6.182982, +18.141491, +77.738693 
1488855951.315129, 1488855951.315129, -0.664551, +0.042480, -0.089233, +6.182982, +18.141491, +77.738693 
1488855951.319075, 1488855951.319075, -0.664551, +0.042480, -0.089233, +6.182982, +18.141491, +77.738693 
1488855951.323028, 1488855951.323028, -0.664551, +0.042480, -0.089233, +0.125243, +26.304943, +88.313034 
1488855951.326977, 1488855951.326977, -0.664551, +0.042480, -0.089233, +0.125243, +26.304943, +88.313034 
1488855951.330917, 1488855951.330917, -0.662842, +0.108887, -0.091553, +0.125243, +26.304943, +96.125534 
1488855951.334910, 1488855951.334910, -0.662842, +0.108887, -0.091553, -7.168458, +34.880383, +97.010544 
1488855951.338855, 1488855951.338855, -0.662842, +0.108887, -0.091553, -7.168458, +34.880383, +97.010544 
1488855951.342802, 1488855951.342802, -0.662842, +0.108887, -0.091553, -18.887207, +45.241100, +104.136398 
1488855951.346760, 1488855951.346760, -0.662842, +0.108887, -0.091553, -16.827271, +45.241100, +104.136398 
1488855951.350907, 1488855951.350907, -0.735474, +0.127319, -0.088867, -16.827271, +45.241100, +104.136398 
1488855951.355198, 1488855951.355198, -0.735474, +0.127319, -0.088867, -28.332397, +56.029064, +109.766891 
1488855951.358952, 1488855951.358952, -0.735474, +0.127319, -0.088867, -28.332397, +56.029064, +109.766891 
1488855951.362715, 1488855951.362715, -0.735474, +0.127319, -0.088867, -28.332397, +56.029064, +109.766891 
1488855951.366516, 1488855951.366516, -0.735474, +0.127319, -0.088867, -41.317627, +65.413223, +114.344528 
1488855951.370272, 1488855951.370272, -0.876099, +0.097290, -0.059082, -41.317627, +65.413223, +114.344528 
1488855951.374084, 1488855951.374084, -0.876099, +0.097290, -0.059082, -41.317627, +65.413223, +114.344528 
1488855951.377832, 1488855951.377832, -0.876099, +0.097290, -0.059082, -54.638550, +73.759781, +118.205002 
1488855951.381578, 1488855951.381578, -0.876099, +0.097290, -0.059082, -54.638550, +73.759781, +118.205002 
1488855951.385405, 1488855951.385405, -0.876099, +0.097290, -0.059082, -54.638550, +73.759781, +118.205002 
1488855951.389150, 1488855951.389150, -1.033203, -0.002808, -0.008667, -65.228149, +80.198990, +121.775558 
1488855951.392901, 1488855951.392901, -1.033203, -0.002808, -0.008667, -65.228149, +80.198990, +121.775558 
1488855951.396655, 1488855951.396655, -1.033203, -0.002808, -0.008667, -65.228149, +80.198990, +126.032761 
1488855951.400394, 1488855951.400394, -1.033203, -0.002808, -0.008667, -72.704956, +83.967911, +126.032761 
1488855951.404300, 1488855951.404300, -1.033203, -0.002808, -0.008667, -72.704956, +83.967911, +126.032761 
1488855951.408051, 1488855951.408051, -1.166504, -0.097656, -0.028564, -72.704956, +84.273087, +130.534103 
1488855951.411807, 1488855951.411807, -1.166504, -0.097656, -0.028564, -73.620483, +84.273087, +130.534103 
1488855951.415718, 1488855951.415718, -1.166504, -0.097656, -0.028564, -73.620483, +84.273087, +130.534103 
1488855951.419471, 1488855951.419471, -1.166504, -0.097656, -0.028564, -71.468994, +82.274185, +134.074142 
1488855951.423330, 1488855951.423330, -1.166504, -0.097656, -0.028564, -71.468994, +82.274185, +134.074142 
1488855951.427212, 1488855951.427212, -1.265381, -0.099487, -0.083496, -71.468994, +82.274185, +134.074142 
1488855951.431109, 1488855951.431109, -1.265381, -0.099487, -0.083496, -70.675537, +79.039322, +137.049606 
1488855951.435035, 1488855951.435035, -1.265381, -0.099487, -0.083496, -70.675537, +79.039322, +137.049606 
1488855951.438995, 1488855951.438995, -1.265381, -0.099487, -0.083496, -70.675537, +79.039322, +137.049606 
1488855951.442942, 1488855951.442942, -1.265381, -0.099487, -0.083496, -74.001953, +77.040421, +137.690475 
1488855951.446936, 1488855951.446936, -1.327881, -0.148926, -0.105347, -74.001953, +77.040421, +137.690475 
1488855951.450892, 1488855951.450892, -1.335693, -0.148926, -0.105347, -74.001953, +77.040421, +137.019089 
1488855951.454803, 1488855951.454803, -1.335693, -0.148926, -0.105347, -80.227539, +77.299820, +137.019089 
1488855951.458564, 1488855951.458564, -1.335693, -0.148926, -0.105347, -80.227539, +77.299820, +137.019089 
1488855951.462310, 1488855951.462310, -1.335693, -0.148926, -0.105347, -80.227539, +81.206070, +135.279587 
1488855951.466230, 1488855951.466230, -1.335693, -0.148926, -0.158447, -84.942505, +78.871475, +135.279587 
1488855951.470267, 1488855951.470267, -1.333618, -0.230347, -0.158447, -84.942505, +78.871475, +135.279587 
1488855951.474354, 1488855951.474354, -1.333618, -0.230347, -0.158447, -87.048218, +79.863297, +133.128098 
1488855951.478312, 1488855951.478312, -1.333618, -0.230347, -0.158447, -87.048218, +79.863297, +133.128098 
1488855951.482257, 1488855951.482257, -1.333618, -0.230347, -0.158447, -87.048218, +79.863297, +133.128098 
1488855951.486216, 1488855951.486216, -1.333618, -0.230347, -0.193359, -86.865112, +80.595718, +130.396774 
1488855951.490157, 1488855951.490157, -1.349976, -0.233154, -0.193359, -86.865112, +80.595718, +130.396774 
1488855951.494126, 1488855951.494126, -1.349976, -0.233154, -0.193359, -86.865112, +80.595718, +130.396774 
1488855951.498070, 1488855951.498070, -1.349976, -0.233154, -0.193359, -84.652588, +81.038223, +128.352097 
1488855951.502022, 1488855951.502022, -1.349976, -0.233154, -0.193359, -84.652588, +81.038223, +128.352097 
1488855951.505838, 1488855951.505838, -1.349976, -0.233154, -0.216309, -84.652588, +81.038223, +126.978806 
1488855951.509593, 1488855951.509593, -1.378784, -0.226318, -0.216309, -81.783936, +80.382095, +126.978806 
1488855951.513349, 1488855951.513349, -1.378784, -0.226318, -0.216309, -81.783936, +80.382095, +126.978806 
1488855951.517105, 1488855951.517105, -1.378784, -0.226318, -0.216309, -77.877686, +79.664932, +126.292160 
1488855951.520856, 1488855951.520856, -1.378784, -0.226318, -0.216309, -77.816650, +79.664932, +126.292160 
1488855951.524757, 1488855951.524757, -1.378784, -0.226318, -0.216309, -77.816650, +79.664932, +126.292160 
1488855951.528508, 1488855951.528508, -1.386597, -0.211792, -0.251831, -72.735474, +78.551041, +126.048019 
1488855951.532261, 1488855951.532261, -1.386597, -0.211792, -0.251831, -72.735474, +78.551041, +126.048019 
1488855951.536257, 1488855951.536257, -1.386597, -0.211792, -0.251831, -72.735474, +78.551041, +126.048019 
1488855951.540204, 1488855951.540204, -1.386597, -0.211792, -0.251831, -66.906616, +77.162491, +126.048019 
1488855951.544154, 1488855951.544154, -1.386597, -0.211792, -0.251831, -66.906616, +77.162491, +126.048019 
1488855951.548106, 1488855951.548106, -1.371094, -0.184204, -0.246948, -66.906616, +77.162491, +126.048019 
1488855951.552160, 1488855951.552160, -1.371094, -0.184204, -0.246948, -60.452148, +75.758682, +126.231125 
1488855951.555973, 1488855951.555973, -1.371094, -0.184204, -0.246948, -60.452148, +75.758682, +126.231125 
1488855951.559727, 1488855951.559727, -1.371094, -0.184204, -0.246948, -60.452148, +75.758682, +126.231125 
1488855951.563523, 1488855951.563523, -1.371094, -0.184204, -0.246948, -54.608032, +74.248062, +126.673630 
1488855951.567463, 1488855951.567463, -1.391235, -0.160522, -0.248169, -54.608032, +74.248062, +126.673630 
1488855951.571412, 1488855951.571412, -1.391235, -0.160522, -0.248169, -50.701782, +72.172867, +127.238205 
1488855951.575371, 1488855951.575371, -1.391235, -0.160522, -0.248169, -48.840210, +72.172867, +127.238205 
1488855951.579313, 1488855951.579313, -1.391235, -0.160522, -0.248169, -48.840210, +72.172867, +127.238205 
1488855951.583274, 1488855951.583274, -1.391235, -0.160522, -0.248169, -43.636963, +69.609390, +126.887253 
1488855951.587215, 1488855951.587215, -1.369507, -0.176514, -0.246216, -43.636963, +69.609390, +126.887253 
1488855951.591340, 1488855951.591340, -1.369507, -0.176514, -0.246216, -43.636963, +69.609390, +126.887253 
1488855951.595482, 1488855951.595482, -1.369507, -0.176514, -0.246216, -38.113281, +67.503677, +125.239304 
1488855951.599430, 1488855951.599430, -1.369507, -0.176514, -0.246216, -38.113281, +67.503677, +125.239304 
1488855951.603376, 1488855951.603376, -1.369507, -0.176514, -0.246216, -38.113281, +67.503677, +121.333054 
1488855951.607123, 1488855951.607123, -1.393066, -0.165649, -0.238403, -31.857178, +65.352188, +122.996262 
1488855951.610875, 1488855951.610875, -1.393066, -0.165649, -0.238403, -31.857178, +65.352188, +122.996262 
1488855951.614748, 1488855951.614748, -1.393066, -0.165649, -0.238403, -31.857178, +61.445934, +119.929245 
1488855951.618696, 1488855951.618696, -1.393066, -0.165649, -0.238403, -25.021240, +62.590343, +119.929245 
1488855951.622646, 1488855951.622646, -1.393066, -0.165649, -0.238403, -25.021240, +62.590343, +119.929245 
1488855951.626430, 1488855951.626430, -1.421997, -0.092773, -0.216431, -19.619629, +58.043224, +116.419724 
1488855951.630187, 1488855951.630187, -1.421997, -0.092773, -0.216431, -19.619629, +58.043224, +116.419724 
1488855951.633946, 1488855951.633946, -1.421997, -0.092773, -0.216431, -19.619629, +58.043224, +116.419724 
1488855951.637707, 1488855951.637707, -1.421997, -0.092773, -0.216431, -17.544434, +53.908092, +112.818649 
1488855951.641454, 1488855951.641454, -1.421997, -0.092773, -0.216431, -17.544434, +53.908092, +112.818649 
1488855951.645341, 1488855951.645341, -1.421997, -0.202515, -0.247192, -17.544434, +53.908092, +112.818649 
1488855951.649084, 1488855951.649084, -1.329468, -0.202515, -0.247192, -12.951539, +50.841076, +107.630661 
1488855951.652842, 1488855951.652842, -1.329468, -0.202515, -0.247192, -12.951539, +50.841076, +107.630661 
1488855951.656729, 1488855951.656729, -1.329468, -0.202515, -0.247192, -12.951539, +50.841076, +107.630661 
1488855951.660481, 1488855951.660481, -1.329468, -0.202515, -0.247192, -5.291627, +48.704845, +100.871017 
1488855951.664289, 1488855951.664289, -1.329468, -0.202515, -0.247192, -5.291627, +48.704845, +100.871017 
1488855951.668025, 1488855951.668025, -1.285156, -0.212891, -0.240601, -5.291627, +48.704845, +100.871017 
1488855951.671770, 1488855951.671770, -1.285156, -0.212891, -0.240601, +4.962279, +46.599133, +93.668869 
1488855951.675589, 1488855951.675589, -1.285156, -0.212891, -0.240601, +4.962279, +46.599133, +93.668869 
1488855951.679340, 1488855951.679340, -1.285156, -0.212891, -0.240601, +4.962279, +46.599133, +93.668869 
1488855951.683083, 1488855951.683083, -1.285156, -0.212891, -0.240601, +15.048339, +43.257458, +85.673264 
1488855951.686829, 1488855951.686829, -1.291138, -0.165161, -0.161011, +15.048339, +43.257458, +85.673264 
1488855951.690579, 1488855951.690579, -1.291138, -0.165161, -0.161011, +15.048339, +43.257458, +77.860764 
1488855951.694357, 1488855951.694357, -1.291138, -0.165161, -0.161011, +24.569824, +38.023693, +76.594284 
1488855951.698218, 1488855951.698218, -1.291138, -0.165161, -0.161011, +24.569824, +38.023693, +76.594284 
1488855951.701964, 1488855951.701964, -1.291138, -0.165161, -0.161011, +24.569824, +30.821545, +65.928391 
1488855951.705788, 1488855951.705788, -1.268799, -0.108154, -0.146362, +31.695679, +30.821545, +65.928391 
1488855951.709748, 1488855951.709748, -1.268799, -0.108154, -0.146362, +31.695679, +30.821545, +65.928391 
1488855951.713746, 1488855951.713746, -1.268799, -0.108154, -0.146362, +35.983398, +23.009045, +55.109913 
1488855951.717691, 1488855951.717691, -1.268799, -0.108154, -0.146362, +35.983398, +23.009045, +55.109913 
1488855951.721637, 1488855951.721637, -1.268799, -0.108154, -0.146362, +35.983398, +23.009045, +55.109913 
1488855951.725601, 1488855951.725601, -1.215332, -0.064331, -0.093750, +38.455322, +16.234142, +42.994434 
1488855951.729540, 1488855951.729540, -1.215332, -0.064331, -0.093750, +38.455322, +16.234142, +42.994434 
1488855951.733502, 1488855951.733502, -1.215332, -0.064331, -0.093750, +38.455322, +16.234142, +42.994434 
1488855951.737451, 1488855951.737451, -1.215332, -0.064331, -0.093750, +38.989380, +9.749158, +29.856617 
1488855951.741387, 1488855951.741387, -1.215332, -0.064331, -0.093750, +38.989380, +9.749158, +29.856617 
1488855951.745238, 1488855951.745238, -1.223877, -0.014893, -0.043091, +38.989380, +9.749158, +15.299731 
1488855951.748982, 1488855951.748982, -1.223877, -0.014893, -0.043091, +35.998657, +1.723035, +15.299731 
1488855951.752730, 1488855951.752730, -1.223877, -0.014893, -0.043091, +35.998657, +1.723035, +15.299731 
1488855951.756531, 1488855951.756531, -1.223877, -0.014893, -0.043091, +35.998657, -5.296008, +0.651294 
1488855951.760277, 1488855951.760277, -1.223877, -0.014893, -0.043091, +31.115845, -5.296008, +0.651294 
1488855951.764182, 1488855951.764182, -1.223877, +0.078857, -0.058716, +31.115845, -5.296008, +0.651294 
1488855951.767934, 1488855951.767934, -1.234619, +0.070679, -0.058716, +23.898438, -11.552112, -13.737744 
1488855951.771688, 1488855951.771688, -1.234619, +0.070679, -0.058716, +23.898438, -11.552112, -13.737744 
1488855951.775652, 1488855951.775652, -1.234619, +0.070679, -0.058716, +23.898438, -11.552112, -13.737744 
1488855951.779595, 1488855951.779595, -1.234619, +0.070679, -0.058716, +16.970947, -18.769520, -27.913158 
1488855951.783549, 1488855951.783549, -1.234619, +0.070679, +0.035034, +16.970947, -18.769520, -27.913158 
1488855951.787495, 1488855951.787495, -1.233398, +0.132324, +0.039185, +16.970947, -18.769520, -27.913158 
1488855951.791440, 1488855951.791440, -1.233398, +0.132324, +0.039185, +9.555175, -25.498646, -40.867870 
1488855951.795396, 1488855951.795396, -1.233398, +0.132324, +0.039185, +9.555175, -25.498646, -40.867870 
1488855951.799336, 1488855951.799336, -1.233398, +0.132324, +0.039185, +9.555175, -25.498646, -48.680370 
1488855951.803279, 1488855951.803279, -1.233398, +0.132324, +0.039185, +0.140502, -28.214710, -49.870556 
1488855951.807031, 1488855951.807031, -1.062134, +0.367920, -0.268921, +0.140502, -28.214710, -49.870556 
1488855951.810775, 1488855951.810775, -1.062134, +0.367920, -0.268921, +0.140502, -24.308460, -54.158276 
1488855951.814617, 1488855951.814617, -1.062134, +0.367920, -0.268921, -7.626222, -26.505726, -54.158276 
1488855951.818559, 1488855951.818559, -1.062134, +0.367920, -0.268921, -7.626222, -26.505726, -54.158276 
1488855951.822497, 1488855951.822497, -1.062134, +0.367920, -0.268921, -14.248536, -24.018543, -55.409496 
1488855951.826477, 1488855951.826477, -1.006836, +0.530518, -0.312378, -14.248536, -24.018543, -55.409496 
1488855951.830508, 1488855951.830508, -1.006836, +0.530518, -0.312378, -14.248536, -24.018543, -55.409496 
1488855951.834887, 1488855951.834887, -1.006836, +0.530518, -0.312378, -21.359131, -22.095936, -53.883617 
1488855951.838833, 1488855951.838833, -1.006836, +0.530518, -0.312378, -21.359131, -22.095936, -53.883617 
1488855951.842780, 1488855951.842780, -1.006836, +0.530518, -0.312378, -21.359131, -22.095936, -49.977367 
1488855951.846735, 1488855951.846735, -0.786133, +0.985962, -0.756226, -30.972168, -17.655628, -50.053661 
1488855951.850789, 1488855951.850789, -0.786133, +0.985962, -0.756226, -30.972168, -17.655628, -50.053661 
1488855951.854671, 1488855951.854671, -0.786133, +0.985962, -0.756226, -46.597168, -9.217517, -35.603588 
1488855951.858419, 1488855951.858419, -0.786133, +0.985962, -0.756226, -46.459839, -9.217517, -35.603588 
1488855951.862171, 1488855951.862171, -0.786133, +0.985962, -0.756226, -46.459839, -9.217517, -35.603588 
1488855951.865972, 1488855951.865972, -0.582520, +1.291870, -0.837646, -35.610840, +4.454358, -5.833692 
1488855951.869719, 1488855951.869719, -0.582520, +1.291870, -0.837646, -35.610840, +4.454358, -5.833692 
1488855951.873498, 1488855951.873498, -0.582520, +1.291870, -0.837646, -35.610840, +4.454358, -5.833692 
1488855951.877249, 1488855951.877249, -0.582520, +1.291870, -0.837646, -16.186401, +15.700086, +7.594043 
1488855951.881001, 1488855951.881001, -0.582520, +1.291870, -0.837646, -16.186401, +15.700086, +7.594043 
1488855951.884922, 1488855951.884922, -1.238159, -0.178589, -0.170410, -16.186401, +15.700086, +7.594043 
1488855951.888674, 1488855951.888674, -1.238159, -0.178589, -0.170410, -16.201660, +9.199841, -5.528516 
1488855951.892419, 1488855951.892419, -1.238159, -0.178589, -0.170410, -16.201660, +9.199841, -5.528516 
1488855951.896437, 1488855951.896437, -1.238159, -0.178589, -0.170410, -16.201660, +9.199841, -5.528516 
1488855951.900376, 1488855951.900376, -1.238159, -0.178589, -0.170410, -19.650146, -0.443713, -19.612377 
1488855951.904276, 1488855951.904276, -1.168457, +0.063232, -0.387207, -19.650146, -0.443713, -19.612377 
1488855951.908024, 1488855951.908024, -1.168457, +0.063232, -0.387207, -19.650146, -0.443713, -19.612377 
1488855951.911774, 1488855951.911774, -1.168457, +0.063232, -0.387207, -17.132446, -7.737414, -23.945873 
1488855951.915703, 1488855951.915703, -1.168457, +0.063232, -0.387207, -17.132446, -7.737414, -23.945873 
1488855951.919641, 1488855951.919641, -1.168457, +0.063232, -0.387207, -17.132446, -3.831164, -22.603100 
1488855951.923590, 1488855951.923590, -0.926147, +0.553345, -0.655151, -7.595704, -4.716174, -22.603100 
1488855951.927530, 1488855951.927530, -0.926147, +0.553345, -0.655151, -7.595704, -4.716174, -22.603100 
1488855951.931475, 1488855951.931475, -0.926147, +0.553345, -0.655151, +0.521972, +3.065808, -20.268505 
1488855951.935419, 1488855951.935419, -0.926147, +0.553345, -0.655151, +0.521972, +3.065808, -20.268505 
1488855951.939361, 1488855951.939361, -0.926147, +0.553345, -0.655151, +0.521972, +3.065808, -20.268505 
1488855951.943308, 1488855951.943308, -1.051147, +0.457886, -0.582153, -5.245851, +10.115369, -22.481030 
1488855951.947058, 1488855951.947058, -1.038086, +0.457886, -0.582153, -5.245851, +10.115369, -22.481030 
1488855951.951147, 1488855951.951147, -1.038086, +0.457886, -0.582153, -5.245851, +10.115369, -22.481030 
1488855951.955260, 1488855951.955260, -1.038086, +0.457886, -0.582153, -21.908447, +12.465222, -30.049389 
1488855951.959148, 1488855951.959148, -1.038086, +0.457886, -0.582153, -21.908447, +12.465222, -30.049389 
1488855951.963221, 1488855951.963221, -1.052979, +0.331055, -0.559937, -36.022827, +12.358411, -37.694042 
1488855951.968078, 1488855951.968078, -1.052979, +0.331055, -0.559937, -36.022827, +12.358411, -37.694042 
1488855951.971857, 1488855951.971857, -1.052979, +0.331055, -0.559937, -36.022827, +12.358411, -37.694042 
1488855951.975628, 1488855951.975628, -1.052979, +0.331055, -0.559937, -40.218994, +10.954602, -41.066235 
1488855951.979377, 1488855951.979377, -1.052979, +0.331055, -0.559937, -40.218994, +10.954602, -41.066235 
1488855951.983111, 1488855951.983111, -1.137939, +0.400024, -0.239136, -40.218994, +10.954602, -41.066235 
1488855951.986853, 1488855951.986853, -1.137939, +0.400024, -0.239136, -34.863159, +6.285413, -40.303295 
1488855951.990595, 1488855951.990595, -1.137939, +0.400024, -0.239136, -34.863159, +6.285413, -40.303295 
1488855951.994345, 1488855951.994345, -1.137939, +0.400024, -0.239136, -34.863159, +6.285413, -40.303295 
1488855951.998204, 1488855951.998204, -1.137939, +0.400024, -0.239136, -20.474121, +1.539929, -37.129467 
1488855952.001951, 1488855952.001951, -1.137939, +0.400024, -0.082886, -20.474121, +1.539929, -37.129467 
1488855952.005746, 1488855952.005746, -1.197876, +0.266479, -0.080933, -20.474121, +1.539929, -37.129467 
1488855952.009482, 1488855952.009482, -1.197876, +0.266479, -0.080933, -6.848023, -0.840442, -36.534374 
1488855952.013400, 1488855952.013400, -1.197876, +0.266479, -0.080933, -6.848023, -0.840442, -36.534374 
1488855952.017146, 1488855952.017146, -1.197876, +0.266479, -0.080933, -6.848023, -0.840442, -40.440624 
1488855952.020892, 1488855952.020892, -1.197876, +0.266479, -0.080933, -0.500367, -1.740710, -39.387768 
1488855952.024823, 1488855952.024823, -1.170410, +0.349365, -0.230225, -0.500367, -1.740710, -39.387768 
1488855952.028764, 1488855952.028764, -1.170410, +0.349365, -0.230225, -0.500367, -3.297107, -44.148510 
1488855952.032705, 1488855952.032705, -1.170410, +0.349365, -0.230225, -4.223512, -3.297107, -44.148510 
1488855952.036688, 1488855952.036688, -1.170410, +0.349365, -0.230225, -4.223512, -3.297107, -44.148510 
