Calculating the offsets...
timestamp_before, timestamp_after, accel_x, accel_y, accel_z, gyro_x, gyro_y, gyro_z
1488856122.405953, 1488856122.405953, -1.042603, +0.045898, -0.406616, +14.354290, -18.957308, -4.870726 
1488856122.418197, 1488856122.418197, -1.042603, +0.045898, -0.406616, +16.841473, -19.552401, -4.870726 
1488856122.422126, 1488856122.422126, -1.042603, +0.045898, -0.406616, +16.841473, -19.552401, -4.870726 
1488856122.426128, 1488856122.426128, -1.042603, +0.045898, -0.406616, +17.818035, -19.857576, -4.138304 
1488856122.430357, 1488856122.430357, -1.042603, +0.045898, -0.406616, +17.818035, -19.857576, -4.138304 
1488856122.434764, 1488856122.434764, -1.080811, +0.044678, -0.401367, +17.818035, -19.857576, -4.138304 
1488856122.438495, 1488856122.438495, -1.080811, +0.044678, -0.401367, +19.221844, -20.849398, -4.260375 
1488856122.442239, 1488856122.442239, -1.080811, +0.044678, -0.401367, +19.221844, -20.849398, -4.260375 
1488856122.445994, 1488856122.445994, -1.080811, +0.044678, -0.401367, +19.221844, -20.849398, -4.260375 
1488856122.449740, 1488856122.449740, -1.080811, +0.044678, -0.401367, +21.190228, -21.612337, -4.077269 
1488856122.453504, 1488856122.453504, -1.102783, -0.021606, -0.340576, +21.190228, -21.612337, -4.077269 
1488856122.457249, 1488856122.457249, -1.102783, -0.021606, -0.340576, +21.190228, -21.612337, -5.160643 
1488856122.460991, 1488856122.460991, -1.102783, -0.021606, -0.340576, +22.838177, -23.046663, -5.160643 
1488856122.464805, 1488856122.464805, -1.102783, -0.021606, -0.340576, +22.838177, -23.046663, -5.160643 
1488856122.468546, 1488856122.468546, -1.102783, -0.021606, -0.340576, +22.838177, -24.648836, -6.137206 
1488856122.472286, 1488856122.472286, -1.071533, +0.079468, -0.381958, +23.433270, -24.648836, -6.137206 
1488856122.476131, 1488856122.476131, -1.080933, +0.079468, -0.381958, +23.433270, -24.648836, -6.137206 
1488856122.479875, 1488856122.479875, -1.080933, +0.079468, -0.381958, +23.906292, -25.427034, -6.945921 
1488856122.483765, 1488856122.483765, -1.080933, +0.079468, -0.381958, +23.906292, -25.427034, -6.945921 
1488856122.487508, 1488856122.487508, -1.080933, +0.079468, -0.381958, +23.906292, -25.427034, -6.945921 
1488856122.491246, 1488856122.491246, -1.080933, +0.079468, -0.350708, +22.639812, -26.327303, -8.303953 
1488856122.495028, 1488856122.495028, -1.091919, +0.072266, -0.371094, +22.639812, -26.327303, -8.303953 
1488856122.498767, 1488856122.498767, -1.091919, +0.072266, -0.371094, +22.639812, -26.327303, -8.303953 
1488856122.502508, 1488856122.502508, -1.091919, +0.072266, -0.371094, +20.717205, -27.593782, -10.440184 
1488856122.506264, 1488856122.506264, -1.091919, +0.072266, -0.371094, +20.717205, -27.593782, -10.440184 
1488856122.510016, 1488856122.510016, -1.091919, +0.072266, -0.371094, +20.717205, -27.593782, -10.440184 
1488856122.513777, 1488856122.513777, -1.114868, +0.068481, -0.342163, +19.954266, -29.913118, -11.584593 
1488856122.517526, 1488856122.517526, -1.114868, +0.068481, -0.342163, +19.954266, -29.913118, -11.584593 
1488856122.521283, 1488856122.521283, -1.114868, +0.068481, -0.342163, +19.954266, -29.913118, -11.584593 
1488856122.525130, 1488856122.525130, -1.114868, +0.068481, -0.342163, +18.001141, -32.140900, -13.278318 
1488856122.528885, 1488856122.528885, -1.114868, +0.068481, -0.342163, +18.001141, -32.140900, -13.278318 
1488856122.532635, 1488856122.532635, -1.119141, +0.044189, -0.402710, +18.001141, -32.140900, -13.278318 
1488856122.536622, 1488856122.536622, -1.119141, +0.044189, -0.402710, +17.375530, -33.636261, -15.887571 
1488856122.540648, 1488856122.540648, -1.119141, +0.044189, -0.402710, +17.375530, -33.636261, -15.887571 
1488856122.544604, 1488856122.544604, -1.119141, +0.044189, -0.402710, +17.375530, -33.636261, -18.069578 
1488856122.548547, 1488856122.548547, -1.119141, +0.044189, -0.402710, +15.971722, -35.970856, -18.069578 
1488856122.552499, 1488856122.552499, -1.068359, +0.093628, -0.413818, +15.971722, -35.970856, -18.069578 
1488856122.556319, 1488856122.556319, -1.068359, +0.093628, -0.413818, +14.949383, -38.564850, -19.015623 
1488856122.560231, 1488856122.560231, -1.068359, +0.093628, -0.413818, +14.949383, -38.564850, -19.015623 
1488856122.564091, 1488856122.564091, -1.068359, +0.093628, -0.413818, +14.949383, -38.564850, -19.015623 
1488856122.568032, 1488856122.568032, -1.068359, +0.093628, -0.413818, +13.637127, -40.945221, -19.839598 
1488856122.572068, 1488856122.572068, -1.166992, -0.001465, -0.520874, +13.637127, -40.945221, -19.839598 
1488856122.576584, 1488856122.576584, -1.166992, -0.001465, -0.520874, +13.637127, -40.945221, -19.839598 
1488856122.580335, 1488856122.580335, -1.166992, -0.001465, -0.520874, +11.348309, -42.867828, -22.540403 
1488856122.584151, 1488856122.584151, -1.166992, -0.001465, -0.520874, +11.348309, -42.867828, -22.540403 
1488856122.588101, 1488856122.588101, -1.166992, -0.001465, -0.520874, +11.348309, -42.867828, -25.729490 
1488856122.592049, 1488856122.592049, -1.156128, +0.083374, -0.405029, +12.202801, -44.012238, -25.729490 
1488856122.595868, 1488856122.595868, -1.156128, +0.083374, -0.405029, +12.202801, -44.012238, -25.729490 
1488856122.599616, 1488856122.599616, -1.156128, +0.083374, -0.405029, +17.818035, -46.850372, -24.142576 
1488856122.603385, 1488856122.603385, -1.156128, +0.083374, -0.405029, +17.818035, -46.850372, -24.142576 
1488856122.607330, 1488856122.607330, -1.156128, +0.083374, -0.405029, +17.818035, -46.850372, -24.142576 
1488856122.611274, 1488856122.611274, -1.156128, -0.042847, -0.268433, +23.128094, -49.719025, -24.173094 
1488856122.615116, 1488856122.615116, -1.143921, -0.042847, -0.268433, +23.128094, -49.719025, -24.173094 
1488856122.618869, 1488856122.618869, -1.143921, -0.042847, -0.268433, +23.128094, -49.719025, -24.173094 
1488856122.622620, 1488856122.622620, -1.143921, -0.042847, -0.268433, +24.470867, -51.962067, -29.620481 
1488856122.626464, 1488856122.626464, -1.143921, -0.042847, -0.268433, +24.470867, -51.962067, -29.620481 
1488856122.630217, 1488856122.630217, -1.143921, -0.042847, -0.393433, +24.470867, -51.962067, -29.620481 
1488856122.634038, 1488856122.634038, -1.137207, +0.190063, -0.391113, +17.192425, -54.250885, -36.074951 
1488856122.638068, 1488856122.638068, -1.137207, +0.190063, -0.391113, +17.192425, -54.250885, -36.074951 
1488856122.641826, 1488856122.641826, -1.137207, +0.190063, -0.391113, +17.192425, -54.250885, -36.074951 
1488856122.645749, 1488856122.645749, -1.137207, +0.190063, -0.391113, +8.525433, -53.457428, -42.147949 
1488856122.650330, 1488856122.650330, -1.137207, +0.190063, -0.295532, +8.525433, -53.457428, -42.147949 
1488856122.654316, 1488856122.654316, -1.251343, +0.043091, -0.295532, +3.505291, -55.135895, -47.015503 
1488856122.658064, 1488856122.658064, -1.251343, +0.043091, -0.295532, +3.505291, -55.135895, -47.015503 
1488856122.661803, 1488856122.661803, -1.251343, +0.043091, -0.295532, +3.505291, -55.135895, -47.015503 
1488856122.665593, 1488856122.665593, -1.251343, +0.043091, -0.295532, +7.060589, -57.638336, -49.273804 
1488856122.669337, 1488856122.669337, -1.251343, +0.043091, -0.295532, +7.060589, -57.638336, -49.273804 
1488856122.673075, 1488856122.673075, -1.213745, -0.103882, -0.290771, +7.060589, -57.638336, -49.273804 
1488856122.676818, 1488856122.676818, -1.213745, -0.103882, -0.290771, +16.566814, -59.652496, -51.150635 
1488856122.680565, 1488856122.680565, -1.213745, -0.103882, -0.290771, +16.566814, -59.652496, -51.150635 
1488856122.684323, 1488856122.684323, -1.213745, -0.103882, -0.290771, +16.566814, -59.652496, -51.150635 
1488856122.688078, 1488856122.688078, -1.213745, -0.103882, -0.290771, +25.600018, -61.361481, -51.745728 
1488856122.691826, 1488856122.691826, -1.244385, +0.017090, -0.278320, +25.600018, -61.361481, -51.745728 
1488856122.695731, 1488856122.695731, -1.244385, +0.017090, -0.278320, +25.600018, -61.361481, -51.745728 
1488856122.699487, 1488856122.699487, -1.244385, +0.017090, -0.278320, +31.718792, -61.681915, -52.264526 
1488856122.703397, 1488856122.703397, -1.244385, +0.017090, -0.278320, +31.718792, -61.681915, -52.264526 
1488856122.707461, 1488856122.707461, -1.244385, +0.017090, -0.278320, +31.718792, -61.681915, -56.170776 
1488856122.711410, 1488856122.711410, -1.330078, +0.007935, -0.182617, +34.267010, -62.765289, -54.492310 
1488856122.715375, 1488856122.715375, -1.330078, +0.007935, -0.182617, +34.267010, -62.765289, -54.492310 
1488856122.719322, 1488856122.719322, -1.330078, +0.007935, -0.182617, +35.075726, -64.092804, -57.605103 
1488856122.723275, 1488856122.723275, -1.330078, +0.007935, -0.182617, +35.075726, -64.092804, -57.605103 
1488856122.727222, 1488856122.727222, -1.330078, +0.007935, -0.182617, +35.075726, -64.092804, -57.605103 
1488856122.731166, 1488856122.731166, -1.364868, +0.013916, -0.175049, +36.601604, -65.099884, -60.611084 
1488856122.735126, 1488856122.735126, -1.364868, +0.013916, -0.175049, +36.601604, -65.099884, -60.611084 
1488856122.739073, 1488856122.739073, -1.364868, +0.013916, -0.175049, +36.601604, -65.099884, -60.611084 
1488856122.743137, 1488856122.743137, -1.364868, +0.013916, -0.175049, +37.227215, -65.069366, -63.357666 
1488856122.746897, 1488856122.746897, -1.364868, +0.013916, -0.175049, +37.227215, -65.069366, -63.357666 
1488856122.751024, 1488856122.751024, -1.395142, -0.010132, -0.231079, +37.227215, -65.069366, -67.263916 
1488856122.754847, 1488856122.754847, -1.395142, -0.010132, -0.231079, +38.035931, -64.535309, -66.088989 
1488856122.758589, 1488856122.758589, -1.395142, -0.010132, -0.231079, +38.035931, -64.535309, -66.088989 
1488856122.762334, 1488856122.762334, -1.395142, -0.010132, -0.231079, +38.035931, -60.629059, -68.744019 
1488856122.766126, 1488856122.766126, -1.395142, -0.010132, -0.231079, +36.647381, -63.085724, -68.744019 
1488856122.769870, 1488856122.769870, -1.395142, +0.046631, -0.185181, +36.647381, -63.085724, -68.744019 
1488856122.773668, 1488856122.773668, -1.436890, +0.046631, -0.185181, +32.741131, -62.978912, -70.514038 
1488856122.777412, 1488856122.777412, -1.436890, +0.046631, -0.185181, +34.953655, -62.978912, -70.514038 
1488856122.781156, 1488856122.781156, -1.436890, +0.046631, -0.185181, +34.953655, -62.978912, -70.514038 
1488856122.784908, 1488856122.784908, -1.436890, +0.046631, -0.185181, +34.404339, -65.359283, -71.795776 
1488856122.788652, 1488856122.788652, -1.436890, +0.046631, -0.185181, +34.404339, -65.359283, -71.795776 
1488856122.792395, 1488856122.792395, -1.336304, +0.045410, -0.266602, +34.404339, -65.359283, -71.795776 
1488856122.796305, 1488856122.796305, -1.336304, +0.045410, -0.266602, +34.434856, -66.595245, -72.360352 
1488856122.800057, 1488856122.800057, -1.336304, +0.045410, -0.266602, +34.434856, -66.595245, -72.360352 
1488856122.803997, 1488856122.803997, -1.336304, +0.045410, -0.266602, +34.434856, -66.595245, -72.360352 
1488856122.807943, 1488856122.807943, -1.336304, +0.045410, -0.266602, +35.304607, -67.037750, -71.856812 
1488856122.811884, 1488856122.811884, -1.233521, -0.106445, -0.278198, +35.304607, -67.037750, -71.856812 
1488856122.815841, 1488856122.815841, -1.233521, -0.106445, -0.278198, +35.304607, -67.037750, -71.856812 
1488856122.819787, 1488856122.819787, -1.233521, -0.106445, -0.278198, +36.571087, -65.511871, -71.170166 
1488856122.823748, 1488856122.823748, -1.233521, -0.106445, -0.278198, +36.571087, -65.511871, -71.170166 
1488856122.827692, 1488856122.827692, -1.233521, -0.106445, -0.278198, +36.571087, -61.605621, -69.064453 
1488856122.831640, 1488856122.831640, -1.148193, -0.237671, -0.298950, +38.890423, -62.139679, -69.064453 
1488856122.835606, 1488856122.835606, -1.148193, -0.237671, -0.298950, +38.890423, -62.139679, -69.064453 
1488856122.839551, 1488856122.839551, -1.148193, -0.237671, -0.298950, +39.744915, -57.470490, -66.043213 
1488856122.843495, 1488856122.843495, -1.148193, -0.237671, -0.298950, +39.744915, -57.470490, -66.043213 
1488856122.847316, 1488856122.847316, -1.148193, -0.237671, -0.298950, +39.744915, -57.470490, -66.043213 
1488856122.851075, 1488856122.851075, -1.011597, -0.426270, -0.291626, +41.469158, -52.847076, -63.617065 
1488856122.854833, 1488856122.854833, -1.011597, -0.426270, -0.291626, +41.469158, -52.847076, -63.617065 
1488856122.858689, 1488856122.858689, -1.011597, -0.426270, -0.291626, +41.469158, -52.847076, -63.617065 
1488856122.862589, 1488856122.862589, -1.011597, -0.426270, -0.291626, +44.002117, -46.438385, -60.244873 
1488856122.867008, 1488856122.867008, -1.011597, -0.426270, -0.291626, +44.002117, -46.438385, -60.244873 
1488856122.870756, 1488856122.870756, -0.832520, -0.218750, -0.323486, +44.002117, -46.438385, -60.244873 
1488856122.874616, 1488856122.874616, -0.832520, -0.218750, -0.323486, +49.800457, -37.985016, -50.494507 
1488856122.878361, 1488856122.878361, -0.832520, -0.218750, -0.323486, +49.800457, -37.985016, -50.494507 
1488856122.882103, 1488856122.882103, -0.832520, -0.218750, -0.323486, +49.800457, -37.985016, -33.541992 
1488856122.885853, 1488856122.885853, -0.832520, -0.218750, -0.323486, +60.008587, -32.278229, -33.541992 
1488856122.889599, 1488856122.889599, -0.684814, +0.129639, -0.294067, +60.008587, -32.278229, -33.541992 
1488856122.893340, 1488856122.893340, -0.684814, +0.129639, -0.294067, +60.008587, -27.227571, -15.002562 
1488856122.897085, 1488856122.897085, -0.684814, +0.129639, -0.294067, +64.998215, -27.227571, -15.002562 
1488856122.900828, 1488856122.900828, -0.684814, +0.129639, -0.294067, +64.998215, -27.227571, -15.002562 
1488856122.904640, 1488856122.904640, -0.684814, +0.129639, -0.294067, +70.643967, -22.695711, +0.973390 
1488856122.908375, 1488856122.908375, -0.684814, +0.160889, -0.204102, +70.643967, -22.695711, +0.973390 
1488856122.912114, 1488856122.912114, -0.586060, +0.167725, -0.204102, +70.643967, -22.695711, +0.973390 
1488856122.915906, 1488856122.915906, -0.586060, +0.167725, -0.204102, +71.879929, -15.539339, +13.516115 
1488856122.919644, 1488856122.919644, -0.586060, +0.167725, -0.204102, +71.879929, -15.539339, +13.516115 
1488856122.923416, 1488856122.923416, -0.586060, +0.167725, -0.204102, +71.879929, -15.539339, +13.516115 
1488856122.927153, 1488856122.927153, -0.586060, +0.167725, -0.204102, +66.905563, -7.208040, +24.822878 
1488856122.930897, 1488856122.930897, -0.610474, +0.255615, -0.167725, +66.905563, -7.208040, +24.822878 
1488856122.934644, 1488856122.934644, -0.610474, +0.255615, -0.167725, +66.905563, -7.208040, +24.822878 
1488856122.938385, 1488856122.938385, -0.610474, +0.255615, -0.167725, +57.521404, +2.084562, +34.863159 
1488856122.942123, 1488856122.942123, -0.610474, +0.255615, -0.167725, +57.521404, +2.084562, +34.863159 
1488856122.946024, 1488856122.946024, -0.610474, +0.255615, -0.167725, +57.521404, +2.084562, +34.863159 
1488856122.949964, 1488856122.949964, -0.642822, +0.302246, -0.103394, +44.215740, +11.514494, +44.033691 
1488856122.954042, 1488856122.954042, -0.642822, +0.302246, -0.103394, +44.215740, +11.514494, +44.033691 
1488856122.957947, 1488856122.957947, -0.642822, +0.302246, -0.103394, +44.215740, +23.233244, +51.067993 
1488856122.962250, 1488856122.962250, -0.642822, +0.302246, -0.103394, +25.676311, +22.409269, +51.067993 
1488856122.966099, 1488856122.966099, -0.642822, +0.302246, -0.103394, +25.676311, +22.409269, +51.067993 
1488856122.969846, 1488856122.969846, -0.748901, +0.316528, -0.084473, +2.788128, +33.944916, +56.637451 
1488856122.973591, 1488856122.973591, -0.748901, +0.316528, -0.084473, +2.788128, +33.944916, +56.637451 
1488856122.977341, 1488856122.977341, -0.748901, +0.316528, -0.084473, +2.788128, +33.944916, +56.637451 
1488856122.981078, 1488856122.981078, -0.748901, +0.316528, -0.084473, -19.382893, +43.542694, +61.505005 
1488856122.984842, 1488856122.984842, -0.748901, +0.316528, -0.084473, -19.382893, +43.542694, +61.505005 
1488856122.988585, 1488856122.988585, -0.846191, +0.241577, -0.102661, -19.382893, +43.542694, +61.505005 
1488856122.992334, 1488856122.992334, -0.846191, +0.241577, -0.102661, -37.281452, +49.310516, +67.028687 
1488856122.996142, 1488856122.996142, -0.846191, +0.241577, -0.102661, -37.281452, +49.310516, +67.028687 
1488856122.999891, 1488856122.999891, -0.846191, +0.241577, -0.102661, -37.281452, +49.310516, +67.028687 
1488856123.003911, 1488856123.003911, -0.846191, +0.241577, -0.102661, -50.373493, +53.796600, +72.460815 
1488856123.007661, 1488856123.007661, -0.846191, +0.147827, -0.103516, -50.373493, +53.796600, +72.460815 
1488856123.011412, 1488856123.011412, -0.935547, +0.143311, -0.103516, -50.373493, +53.796600, +72.460815 
1488856123.015318, 1488856123.015318, -0.935547, +0.143311, -0.103516, -61.298786, +57.306122, +77.923462 
1488856123.019065, 1488856123.019065, -0.935547, +0.143311, -0.103516, -61.298786, +57.306122, +77.923462 
1488856123.022810, 1488856123.022810, -0.935547, +0.143311, -0.103516, -61.298786, +57.306122, +77.923462 
1488856123.026772, 1488856123.026772, -0.935547, +0.143311, -0.103516, -67.356522, +58.862518, +84.545776 
1488856123.030713, 1488856123.030713, -1.014404, +0.029175, -0.180908, -67.356522, +58.862518, +84.545776 
1488856123.034695, 1488856123.034695, -1.014404, +0.029175, -0.180908, -67.356522, +62.768768, +90.908691 
1488856123.038644, 1488856123.038644, -1.014404, +0.029175, -0.180908, -70.286209, +60.510468, +90.908691 
1488856123.042586, 1488856123.042586, -1.014404, +0.029175, -0.180908, -70.286209, +60.510468, +90.908691 
1488856123.046562, 1488856123.046562, -1.014404, +0.029175, -0.180908, -71.583206, +62.249969, +97.729370 
1488856123.050504, 1488856123.050504, -1.042603, -0.030029, -0.223755, -71.583206, +62.249969, +97.729370 
1488856123.054426, 1488856123.054426, -1.042603, -0.030029, -0.223755, -71.583206, +62.249969, +97.729370 
1488856123.058177, 1488856123.058177, -1.042603, -0.030029, -0.223755, -69.691116, +64.142059, +104.046509 
1488856123.061935, 1488856123.061935, -1.042603, -0.030029, -0.223755, -69.691116, +64.142059, +104.046509 
1488856123.065843, 1488856123.065843, -1.042603, -0.030029, -0.223755, -69.691116, +64.142059, +104.046509 
1488856123.069852, 1488856123.069852, -1.083374, -0.086182, -0.256470, -65.601761, +66.430878, +109.951660 
1488856123.073812, 1488856123.073812, -1.083374, -0.086182, -0.256470, -65.601761, +66.430878, +109.951660 
1488856123.077758, 1488856123.077758, -1.083374, -0.086182, -0.256470, -65.601761, +66.430878, +113.857910 
1488856123.081703, 1488856123.081703, -1.083374, -0.086182, -0.256470, -60.596882, +68.384003, +115.017578 
1488856123.085693, 1488856123.085693, -1.083374, -0.086182, -0.256470, -60.596882, +68.384003, +115.017578 
1488856123.089637, 1488856123.089637, -1.164551, -0.099365, -0.262939, -56.354939, +71.084808, +119.305298 
1488856123.093588, 1488856123.093588, -1.164551, -0.099365, -0.262939, -56.354939, +71.084808, +119.305298 
1488856123.097537, 1488856123.097537, -1.164551, -0.099365, -0.262939, -56.354939, +71.084808, +119.305298 
1488856123.101483, 1488856123.101483, -1.164551, -0.099365, -0.262939, -52.998005, +73.434662, +122.830078 
1488856123.105308, 1488856123.105308, -1.164551, -0.099365, -0.262939, -52.998005, +73.434662, +122.830078 
1488856123.109062, 1488856123.109062, -1.222778, -0.077759, -0.275391, -52.998005, +73.434662, +122.830078 
1488856123.112812, 1488856123.112812, -1.222778, -0.077759, -0.275391, -50.648151, +74.991058, +125.637695 
1488856123.116664, 1488856123.116664, -1.222778, -0.077759, -0.275391, -50.648151, +74.991058, +125.637695 
1488856123.120413, 1488856123.120413, -1.222778, -0.077759, -0.275391, -50.648151, +74.991058, +125.637695 
1488856123.124381, 1488856123.124381, -1.222778, -0.077759, -0.275391, -47.840534, +76.883148, +127.468750 
1488856123.128327, 1488856123.128327, -1.240234, -0.083862, -0.289551, -47.840534, +76.883148, +127.468750 
1488856123.132266, 1488856123.132266, -1.240234, -0.083862, -0.289551, -47.840534, +76.883148, +128.430054 
1488856123.136219, 1488856123.136219, -1.240234, -0.083862, -0.289551, -45.856892, +79.217743, +128.430054 
1488856123.140167, 1488856123.140167, -1.240234, -0.083862, -0.289551, -45.856892, +79.217743, +128.430054 
1488856123.144129, 1488856123.144129, -1.240234, -0.083862, -0.289551, -44.941364, +81.628632, +128.765747 
1488856123.148081, 1488856123.148081, -1.266235, -0.070312, -0.295654, -44.941364, +81.628632, +128.765747 
1488856123.152137, 1488856123.152137, -1.266235, -0.070312, -0.295654, -44.941364, +81.628632, +128.765747 
1488856123.155946, 1488856123.155946, -1.266235, -0.070312, -0.295654, -44.941364, +83.734344, +128.262207 
1488856123.159940, 1488856123.159940, -1.266235, -0.070312, -0.295654, -44.941364, +83.734344, +128.262207 
1488856123.163861, 1488856123.163861, -1.266235, -0.070312, -0.295654, -44.941364, +83.734344, +128.262207 
1488856123.167751, 1488856123.167751, -1.289185, -0.059082, -0.298096, -44.819294, +85.717987, +127.545044 
1488856123.171687, 1488856123.171687, -1.289185, -0.059082, -0.298096, -44.819294, +85.717987, +127.545044 
1488856123.176018, 1488856123.176018, -1.289185, -0.059082, -0.298096, -44.819294, +85.717987, +126.827881 
1488856123.179988, 1488856123.179988, -1.289185, -0.059082, -0.298096, -45.109211, +87.182831, +126.827881 
1488856123.183953, 1488856123.183953, -1.289185, -0.059082, -0.298096, -45.109211, +87.182831, +126.827881 
1488856123.187899, 1488856123.187899, -1.306030, -0.047852, -0.283936, -44.651447, +88.510345, +127.194092 
1488856123.191850, 1488856123.191850, -1.306030, -0.047852, -0.283936, -44.651447, +88.510345, +127.194092 
1488856123.195811, 1488856123.195811, -1.306030, -0.047852, -0.283936, -44.651447, +88.510345, +127.194092 
1488856123.199763, 1488856123.199763, -1.306030, -0.047852, -0.283936, -43.018757, +89.334320, +127.438232 
1488856123.203699, 1488856123.203699, -1.306030, -0.047852, -0.283936, -43.018757, +89.334320, +127.438232 
1488856123.207457, 1488856123.207457, -1.322510, -0.046997, -0.272583, -43.018757, +89.334320, +127.438232 
1488856123.211211, 1488856123.211211, -1.322510, -0.046997, -0.272583, -42.606770, +89.395355, +127.163574 
1488856123.215032, 1488856123.215032, -1.322510, -0.046997, -0.272583, -42.606770, +89.395355, +127.163574 
1488856123.218784, 1488856123.218784, -1.322510, -0.046997, -0.272583, -42.606770, +89.395355, +127.163574 
1488856123.222538, 1488856123.222538, -1.322510, -0.046997, -0.272583, -42.576252, +90.173553, +126.721069 
1488856123.226463, 1488856123.226463, -1.385010, -0.042969, -0.262085, -42.576252, +90.173553, +126.721069 
1488856123.230219, 1488856123.230219, -1.402344, -0.042969, -0.262085, -42.576252, +90.173553, +126.721069 
1488856123.234036, 1488856123.234036, -1.402344, -0.042969, -0.262085, -44.163166, +89.593719, +124.371216 
1488856123.237992, 1488856123.237992, -1.402344, -0.042969, -0.262085, -44.163166, +89.593719, +124.371216 
1488856123.241934, 1488856123.241934, -1.402344, -0.042969, -0.262085, -45.383869, +86.160492, +120.419189 
1488856123.245927, 1488856123.245927, -1.402344, -0.087524, -0.146240, -45.383869, +86.160492, +120.419189 
1488856123.249866, 1488856123.249866, -1.480347, -0.087524, -0.146240, -45.383869, +86.160492, +120.419189 
1488856123.253783, 1488856123.253783, -1.480347, -0.087524, -0.146240, -46.238361, +81.704926, +116.680786 
1488856123.257534, 1488856123.257534, -1.480347, -0.087524, -0.146240, -46.238361, +81.704926, +116.680786 
1488856123.261285, 1488856123.261285, -1.480347, -0.087524, -0.146240, -46.238361, +81.704926, +116.680786 
1488856123.265159, 1488856123.265159, -1.480347, -0.087524, -0.146240, -47.748981, +75.525116, +111.797974 
1488856123.269110, 1488856123.269110, -1.438477, -0.164673, -0.145752, -47.748981, +75.525116, +111.797974 
1488856123.273071, 1488856123.273071, -1.438477, -0.164673, -0.145752, -47.748981, +75.525116, +111.797974 
1488856123.277026, 1488856123.277026, -1.438477, -0.164673, -0.145752, -46.665607, +68.429779, +106.823608 
1488856123.280978, 1488856123.280978, -1.438477, -0.164673, -0.145752, -46.665607, +68.429779, +106.823608 
1488856123.284936, 1488856123.284936, -1.438477, -0.164673, -0.052002, -46.665607, +68.429779, +102.383301 
1488856123.288888, 1488856123.288888, -1.464355, -0.297974, -0.042603, -36.777912, +60.861420, +102.383301 
1488856123.293358, 1488856123.293358, -1.464355, -0.297974, -0.042603, -36.777912, +60.861420, +102.383301 
1488856123.297312, 1488856123.297312, -1.464355, -0.297974, -0.042603, -26.813923, +50.821136, +95.455811 
1488856123.301373, 1488856123.301373, -1.464355, -0.297974, -0.042603, -26.813923, +50.821136, +95.455811 
1488856123.305218, 1488856123.305218, -1.464355, -0.297974, -0.181152, -26.813923, +50.821136, +95.455811 
1488856123.308974, 1488856123.308974, -1.339844, -0.186157, -0.181152, -16.300617, +41.528534, +87.185547 
1488856123.312714, 1488856123.312714, -1.339844, -0.186157, -0.181152, -16.300617, +41.528534, +87.185547 
1488856123.316697, 1488856123.316697, -1.339844, -0.186157, -0.181152, -16.300617, +41.528534, +87.185547 
1488856123.320646, 1488856123.320646, -1.339844, -0.186157, -0.181152, -5.863605, +33.807587, +78.045532 
1488856123.324533, 1488856123.324533, -1.339844, -0.186157, -0.181152, -5.863605, +33.807587, +78.045532 
1488856123.328287, 1488856123.328287, -1.217285, -0.200684, -0.142456, -5.863605, +33.807587, +66.326782 
1488856123.332031, 1488856123.332031, -1.217285, -0.200684, -0.142456, +3.017010, +28.741667, +67.288086 
1488856123.335803, 1488856123.335803, -1.217285, -0.200684, -0.142456, +3.017010, +28.741667, +67.288086 
1488856123.339546, 1488856123.339546, -1.217285, -0.200684, -0.142456, +3.017010, +24.835417, +54.455444 
1488856123.343411, 1488856123.343411, -1.217285, -0.200684, -0.142456, +9.944500, +25.003263, +54.455444 
1488856123.347156, 1488856123.347156, -1.270386, -0.255493, -0.045898, +9.944500, +25.003263, +54.455444 
1488856123.350910, 1488856123.350910, -1.270386, -0.255493, -0.045898, +17.757000, +18.503019, +39.959595 
1488856123.354764, 1488856123.354764, -1.270386, -0.255493, -0.045898, +16.475262, +18.503019, +39.959595 
1488856123.358520, 1488856123.358520, -1.270386, -0.255493, -0.045898, +16.475262, +18.503019, +39.959595 
1488856123.362270, 1488856123.362270, -1.270386, -0.255493, -0.045898, +19.755901, +9.805510, +24.166750 
1488856123.366190, 1488856123.366190, -1.251343, -0.164307, -0.023682, +19.755901, +9.805510, +24.166750 
1488856123.370137, 1488856123.370137, -1.251343, -0.164307, -0.023682, +19.755901, +9.805510, +24.166750 
1488856123.374088, 1488856123.374088, -1.251343, -0.164307, -0.023682, +19.786419, +0.345060, +6.863283 
1488856123.378035, 1488856123.378035, -1.251343, -0.164307, -0.023682, +19.786419, +0.345060, +6.863283 
1488856123.381977, 1488856123.381977, -1.251343, -0.164307, -0.023682, +19.786419, +0.345060, +6.863283 
1488856123.385927, 1488856123.385927, -1.281128, -0.132324, +0.099854, +16.521038, -9.420565, -11.203123 
1488856123.389873, 1488856123.389873, -1.281128, -0.132324, +0.099854, +16.521038, -9.420565, -11.203123 
1488856123.393813, 1488856123.393813, -1.281128, -0.132324, +0.099854, +16.521038, -9.420565, -28.872801 
1488856123.397762, 1488856123.397762, -1.281128, -0.132324, +0.099854, +9.929241, -18.697908, -28.872801 
1488856123.401702, 1488856123.401702, -1.281128, -0.132324, +0.099854, +9.929241, -18.697908, -28.872801 
1488856123.405578, 1488856123.405578, -1.332520, -0.097534, +0.124268, +4.558148, -27.746370, -45.443848 
1488856123.409428, 1488856123.409428, -1.332520, -0.097534, +0.124268, +4.558148, -27.746370, -45.443848 
1488856123.413668, 1488856123.413668, -1.332520, -0.097534, +0.124268, +4.558148, -27.746370, -45.443848 
1488856123.417591, 1488856123.417591, -1.332520, -0.097534, +0.124268, +0.361981, -35.497833, -59.024170 
1488856123.421506, 1488856123.421506, -1.332520, -0.097534, +0.124268, +0.361981, -35.497833, -59.024170 
1488856123.425504, 1488856123.425504, -1.099243, +0.396851, -0.163086, +0.361981, -35.497833, -59.024170 
1488856123.429387, 1488856123.429387, -1.099243, +0.396851, -0.163086, -5.711017, -38.198639, -65.860107 
1488856123.433319, 1488856123.433319, -1.099243, +0.396851, -0.163086, -5.711017, -38.198639, -65.860107 
1488856123.437267, 1488856123.437267, -1.099243, +0.396851, -0.163086, -5.711017, -38.198639, -64.730957 
1488856123.441212, 1488856123.441212, -1.099243, +0.396851, -0.163086, -20.924030, -33.819366, -64.730957 
1488856123.445072, 1488856123.445072, -0.613281, +1.552124, -1.053223, -20.924030, -33.819366, -64.730957 
1488856123.448818, 1488856123.448818, -0.613281, +1.552124, -1.053223, -52.174030, -22.207430, -52.707031 
1488856123.452684, 1488856123.452684, -0.613281, +1.552124, -1.053223, -50.983845, -22.207430, -52.707031 
1488856123.456438, 1488856123.456438, -0.613281, +1.552124, -1.053223, -50.983845, -22.207430, -52.707031 
1488856123.460193, 1488856123.460193, -0.613281, +1.552124, -1.053223, -38.441120, -5.605867, -22.494627 
1488856123.464042, 1488856123.464042, -0.613281, +0.895874, -0.522583, -38.441120, -5.605867, -22.494627 
1488856123.467790, 1488856123.467790, -0.854614, +0.878540, -0.522583, -38.441120, -5.605867, -22.494627 
1488856123.471540, 1488856123.471540, -0.854614, +0.878540, -0.522583, -6.565509, +8.477995, -5.069090 
1488856123.475603, 1488856123.475603, -0.854614, +0.878540, -0.522583, -6.565509, +8.477995, -5.069090 
1488856123.479346, 1488856123.479346, -0.854614, +0.878540, -0.522583, -6.565509, +8.477995, -5.069090 
1488856123.483188, 1488856123.483188, -0.854614, +0.878540, -0.522583, -20.130573, +1.031706, -20.678831 
1488856123.487095, 1488856123.487095, -1.325195, -0.272095, -0.126709, -20.130573, +1.031706, -20.678831 
1488856123.491582, 1488856123.491582, -1.325195, -0.272095, -0.126709, -20.130573, +1.031706, -44.116333 
1488856123.495403, 1488856123.495403, -1.325195, -0.272095, -0.126709, -40.211140, -7.665804, -41.568115 
1488856123.499152, 1488856123.499152, -1.325195, -0.272095, -0.126709, -40.211140, -7.665804, -41.568115 
1488856123.502897, 1488856123.502897, -1.325195, -0.272095, -0.126709, -40.211140, -7.665804, -48.159912 
1488856123.506644, 1488856123.506644, -1.146118, +0.347778, -0.651611, -42.530476, -8.459261, -48.159912 
1488856123.510380, 1488856123.510380, -1.146118, +0.347778, -0.651611, -42.530476, -8.459261, -48.159912 
1488856123.514133, 1488856123.514133, -1.146118, +0.347778, -0.651611, -34.717976, -1.806429, -47.000244 
1488856123.517872, 1488856123.517872, -1.146118, +0.347778, -0.651611, -37.220417, -1.806429, -47.000244 
1488856123.521613, 1488856123.521613, -1.146118, +0.347778, -0.651611, -37.220417, -1.806429, -47.000244 
1488856123.525400, 1488856123.525400, -1.175171, +0.553467, -0.513916, -35.465656, +3.946135, -48.648193 
1488856123.529140, 1488856123.529140, -1.175171, +0.553467, -0.513916, -35.465656, +3.946135, -48.648193 
1488856123.532888, 1488856123.532888, -1.175171, +0.553467, -0.513916, -35.465656, +3.946135, -48.648193 
1488856123.536689, 1488856123.536689, -1.175171, +0.553467, -0.513916, -48.847614, +4.175016, -55.590942 
1488856123.540443, 1488856123.540443, -1.175171, +0.553467, -0.513916, -48.847614, +4.175016, -55.590942 
1488856123.544334, 1488856123.544334, -1.331909, +0.136597, -0.137695, -48.847614, +4.175016, -55.590942 
1488856123.548085, 1488856123.548085, -1.331909, +0.136597, -0.137695, -59.101521, -0.448397, -60.962036 
1488856123.551839, 1488856123.551839, -1.331909, +0.136597, -0.137695, -59.101521, -0.448397, -60.962036 
1488856123.555734, 1488856123.555734, -1.331909, +0.136597, -0.137695, -59.101521, -0.448397, -60.962036 
1488856123.559685, 1488856123.559685, -1.331909, +0.136597, -0.137695, -58.277546, -4.324129, -61.862305 
1488856123.563672, 1488856123.563672, -1.331909, -0.036011, -0.283569, -58.277546, -4.324129, -61.862305 
1488856123.567622, 1488856123.567622, -1.201538, -0.036011, -0.283569, -58.277546, -4.324129, -57.956055 
1488856123.571559, 1488856123.571559, -1.201538, -0.036011, -0.283569, -39.890705, -6.246737, -58.505371 
1488856123.575517, 1488856123.575517, -1.201538, -0.036011, -0.283569, -39.890705, -6.246737, -58.505371 
1488856123.579463, 1488856123.579463, -1.201538, -0.036011, -0.283569, -12.546955, -5.743196, -52.645996 
1488856123.583412, 1488856123.583412, -1.201538, +0.216675, -0.338745, -12.012897, -5.743196, -52.645996 
1488856123.587356, 1488856123.587356, -1.072266, +0.216675, -0.338745, -12.012897, -5.743196, -52.645996 
1488856123.591297, 1488856123.591297, -1.072266, +0.216675, -0.338745, +0.163617, -5.148104, -49.914673 
1488856123.595188, 1488856123.595188, -1.072266, +0.216675, -0.338745, +0.163617, -5.148104, -49.914673 
1488856123.599057, 1488856123.599057, -1.072266, +0.216675, -0.338745, +0.163617, -5.148104, -49.914673 
1488856123.602901, 1488856123.602901, -1.072266, +0.214355, -0.457153, -3.925739, -5.621126, -49.411133 
1488856123.607159, 1488856123.607159, -1.007812, +0.214355, -0.457153, -3.925739, -5.621126, -49.411133 
1488856123.611096, 1488856123.611096, -1.007812, +0.214355, -0.457153, -3.925739, -5.621126, -49.411133 
1488856123.615102, 1488856123.615102, -1.007812, +0.214355, -0.457153, -11.646687, -6.078890, -48.587158 
1488856123.619046, 1488856123.619046, -1.007812, +0.214355, -0.457153, -11.646687, -6.078890, -48.587158 
1488856123.623005, 1488856123.623005, -1.007812, +0.054688, -0.509521, -11.646687, -5.315950, -45.810059 
1488856123.626951, 1488856123.626951, -0.941650, +0.054688, -0.509521, -11.402546, -5.315950, -45.810059 
1488856123.630893, 1488856123.630893, -0.941650, +0.054688, -0.509521, -11.402546, -5.315950, -45.810059 
1488856123.634801, 1488856123.634801, -0.941650, +0.054688, -0.509521, -4.276691, -3.240755, -41.995361 
1488856123.638548, 1488856123.638548, -0.941650, +0.054688, -0.509521, -4.276691, -3.240755, -41.995361 
1488856123.642299, 1488856123.642299, -0.941650, +0.054688, -0.322021, -4.276691, -3.240755, -41.995361 
1488856123.646050, 1488856123.646050, -1.009521, +0.072876, -0.338745, +2.452435, -2.859285, -37.936523 
1488856123.649801, 1488856123.649801, -1.009521, +0.072876, -0.338745, +2.452435, -2.859285, -37.936523 
1488856123.653641, 1488856123.653641, -1.009521, +0.072876, -0.338745, +2.452435, -2.859285, -37.936523 
1488856123.657389, 1488856123.657389, -1.009521, +0.072876, -0.338745, +8.769573, -2.325228, -33.984497 
1488856123.661135, 1488856123.661135, -1.009521, +0.072876, -0.338745, +8.769573, -2.325228, -33.984497 
1488856123.665205, 1488856123.665205, -1.004395, +0.156128, -0.250122, +8.769573, -2.325228, -33.984497 
1488856123.669149, 1488856123.669149, -1.004395, +0.156128, -0.250122, +11.836590, -1.287630, -31.298948 
1488856123.673100, 1488856123.673100, -1.004395, +0.156128, -0.250122, +11.836590, -1.287630, -31.298948 
1488856123.677044, 1488856123.677044, -1.004395, +0.156128, -0.250122, +11.836590, -1.287630, -29.437376 
1488856123.680986, 1488856123.680986, -1.004395, +0.156128, -0.250122, +6.953778, +1.703093, -29.437376 
1488856123.684937, 1488856123.684937, -1.005615, +0.347656, -0.357666, +6.953778, +1.703093, -29.437376 
1488856123.688872, 1488856123.688872, -1.005615, +0.347656, -0.357666, -4.276691, +4.968473, -28.567625 
1488856123.692817, 1488856123.692817, -1.005615, +0.347656, -0.357666, -4.276691, +4.968473, -28.567625 
1488856123.696584, 1488856123.696584, -1.005615, +0.347656, -0.357666, -4.276691, +4.968473, -28.567625 
1488856123.700326, 1488856123.700326, -1.005615, +0.347656, -0.357666, -18.131672, +7.425138, -28.567625 
1488856123.704222, 1488856123.704222, -1.095215, +0.134399, -0.345337, -18.131672, +7.425138, -28.567625 
1488856123.707971, 1488856123.707971, -1.095215, +0.134399, -0.345337, -18.131672, +7.425138, -28.567625 
1488856123.711719, 1488856123.711719, -1.095215, +0.134399, -0.345337, -26.081501, +8.035490, -27.453733 
1488856123.715640, 1488856123.715640, -1.095215, +0.134399, -0.345337, -26.081501, +8.035490, -27.453733 
1488856123.719778, 1488856123.719778, -1.095215, +0.134399, -0.345337, -26.081501, +8.035490, -27.453733 
1488856123.723968, 1488856123.723968, -1.112915, -0.028320, -0.432007, -25.501667, +7.455656, -23.837400 
1488856123.727905, 1488856123.727905, -1.112915, -0.028320, -0.432007, -25.501667, +7.455656, -23.837400 
1488856123.731852, 1488856123.731852, -1.112915, -0.028320, -0.432007, -17.689167, +7.440397, -17.642332 
1488856123.735806, 1488856123.735806, -1.112915, -0.028320, -0.432007, -16.819416, +7.440397, -17.642332 
1488856123.739747, 1488856123.739747, -1.112915, -0.028320, -0.432007, -16.819416, +7.440397, -17.642332 
1488856123.743700, 1488856123.743700, -1.110474, +0.039551, -0.444336, -4.398761, +7.531950, -11.004759 
1488856123.747642, 1488856123.747642, -1.110474, +0.039551, -0.444336, -4.398761, +7.531950, -11.004759 
1488856123.751699, 1488856123.751699, -1.110474, +0.039551, -0.444336, -4.398761, +7.531950, -11.004759 
1488856123.755560, 1488856123.755560, -1.110474, +0.039551, -0.444336, +3.367962, +7.043669, -6.442381 
1488856123.759308, 1488856123.759308, -1.110474, +0.039551, -0.444336, +3.367962, +7.043669, -6.442381 
1488856123.763026, 1488856123.763026, -1.088501, +0.141724, -0.476807, +3.367962, +7.043669, -6.442381 
1488856123.766771, 1488856123.766771, -1.088501, +0.141724, -0.476807, +4.603924, +4.388639, -5.236937 
1488856123.770510, 1488856123.770510, -1.088501, +0.141724, -0.476807, +4.603924, +4.388639, -5.236937 
1488856123.774362, 1488856123.774362, -1.088501, +0.141724, -0.476807, +4.603924, +4.388639, -5.236937 
1488856123.778098, 1488856123.778098, -1.088501, +0.141724, -0.476807, +3.215374, +1.199553, -6.259276 
1488856123.781838, 1488856123.781838, -1.088501, +0.190674, -0.589355, +3.215374, +1.199553, -6.259276 
1488856123.785830, 1488856123.785830, -1.053101, +0.190674, -0.589355, +3.215374, +1.199553, -8.441282 
1488856123.789764, 1488856123.789764, -1.053101, +0.190674, -0.589355, +4.985394, -1.669100, -8.441282 
1488856123.793690, 1488856123.793690, -1.053101, +0.190674, -0.589355, +4.985394, -1.669100, -8.441282 
1488856123.797425, 1488856123.797425, -1.053101, +0.190674, -0.589355, +8.891644, -6.551912, -10.302855 
1488856123.801172, 1488856123.801172, -1.053101, +0.190674, -0.651855, +10.844769, -6.551912, -10.302855 
1488856123.805024, 1488856123.805024, -1.033447, +0.163696, -0.630981, +10.844769, -6.551912, -10.302855 
1488856123.808969, 1488856123.808969, -1.033447, +0.163696, -0.630981, +18.764080, -11.846712, -11.187864 
1488856123.812915, 1488856123.812915, -1.033447, +0.163696, -0.630981, +18.764080, -11.846712, -11.187864 
1488856123.816714, 1488856123.816714, -1.033447, +0.163696, -0.630981, +18.764080, -11.846712, -11.187864 
1488856123.820466, 1488856123.820466, -1.033447, +0.163696, -0.630981, +28.270306, -15.325716, -11.355711 
1488856123.824333, 1488856123.824333, -1.023926, +0.140015, -0.570190, +28.270306, -15.325716, -11.355711 
1488856123.828280, 1488856123.828280, -1.023926, +0.140015, -0.570190, +28.270306, -15.325716, -11.355711 
1488856123.832213, 1488856123.832213, -1.023926, +0.140015, -0.570190, +34.678997, -19.277742, -11.325193 
1488856123.836165, 1488856123.836165, -1.023926, +0.140015, -0.570190, +34.678997, -19.277742, -11.325193 
1488856123.840267, 1488856123.840267, -1.023926, +0.140015, -0.570190, +34.678997, -19.277742, -11.203123 
1488856123.844465, 1488856123.844465, -1.020264, +0.208130, -0.524048, +38.173260, -21.886995, -11.203123 
1488856123.848225, 1488856123.848225, -1.020264, +0.208130, -0.524048, +38.173260, -21.886995, -11.203123 
1488856123.851973, 1488856123.851973, -1.020264, +0.208130, -0.524048, +39.729656, -22.955111, -10.394407 
1488856123.855925, 1488856123.855925, -1.020264, +0.208130, -0.524048, +39.729656, -22.955111, -10.394407 
1488856123.859874, 1488856123.859874, -1.020264, +0.208130, -0.524048, +39.729656, -22.955111, -10.394407 
1488856123.863867, 1488856123.863867, -1.044922, +0.133301, -0.356934, +40.004314, -23.550203, -11.081053 
1488856123.867814, 1488856123.867814, -1.044922, +0.133301, -0.356934, +40.004314, -23.550203, -11.081053 
1488856123.871763, 1488856123.871763, -1.044922, +0.133301, -0.356934, +40.004314, -23.550203, -11.081053 
1488856123.875593, 1488856123.875593, -1.044922, +0.133301, -0.356934, +37.410320, -24.313143, -12.774778 
1488856123.879342, 1488856123.879342, -1.044922, +0.133301, -0.356934, +37.410320, -24.313143, -12.774778 
1488856123.883097, 1488856123.883097, -1.038208, +0.194824, -0.354248, +37.410320, -24.313143, -12.774778 
1488856123.886857, 1488856123.886857, -1.038208, +0.194824, -0.354248, +30.604900, -23.901155, -14.209105 
1488856123.891128, 1488856123.891128, -1.038208, +0.194824, -0.354248, +30.604900, -23.901155, -14.209105 
1488856123.894957, 1488856123.894957, -1.038208, +0.194824, -0.354248, +30.604900, -23.901155, -15.414549 
1488856123.898699, 1488856123.898699, -1.038208, +0.194824, -0.354248, +25.020184, -22.268465, -15.414549 
1488856123.902546, 1488856123.902546, -1.030640, +0.146851, -0.314087, +25.020184, -22.268465, -15.414549 
1488856123.906346, 1488856123.906346, -1.030640, +0.146851, -0.314087, +20.335735, -20.437410, -16.681028 
1488856123.910096, 1488856123.910096, -1.030640, +0.146851, -0.314087, +20.335735, -20.437410, -16.681028 
1488856123.913881, 1488856123.913881, -1.030640, +0.146851, -0.314087, +20.335735, -20.437410, -16.681028 
1488856123.917627, 1488856123.917627, -1.030640, +0.146851, -0.314087, +16.658367, -18.102816, -16.803099 
1488856123.921370, 1488856123.921370, -1.032471, +0.151855, -0.336182, +16.658367, -18.102816, -16.803099 
1488856123.925154, 1488856123.925154, -1.032471, +0.151855, -0.336182, +16.658367, -18.102816, -16.803099 
1488856123.928897, 1488856123.928897, -1.032471, +0.151855, -0.336182, +14.934124, -16.256502, -15.933348 
1488856123.932634, 1488856123.932634, -1.032471, +0.151855, -0.336182, +14.934124, -16.256502, -15.933348 
1488856123.936502, 1488856123.936502, -1.032471, +0.151855, -0.336182, +14.934124, -16.256502, -15.933348 
1488856123.940241, 1488856123.940241, -1.032471, +0.151855, -0.281006, +12.614788, -15.173128, -15.780760 
1488856123.944145, 1488856123.944145, -1.080322, +0.029907, -0.281006, +12.614788, -15.173128, -15.780760 
1488856123.947881, 1488856123.947881, -1.080322, +0.029907, -0.281006, +12.614788, -15.173128, -15.780760 
1488856123.951618, 1488856123.951618, -1.080322, +0.029907, -0.281006, +10.310711, -15.157869, -15.948606 
1488856123.955412, 1488856123.955412, -1.080322, +0.029907, -0.281006, +10.310711, -15.157869, -15.948606 
1488856123.959156, 1488856123.959156, -1.080322, +0.029907, -0.281006, +10.310711, -15.157869, -15.948606 
1488856123.962897, 1488856123.962897, -1.037720, +0.030029, -0.335327, +8.769573, -13.998201, -14.788939 
1488856123.966836, 1488856123.966836, -1.037720, +0.030029, -0.335327, +8.769573, -13.998201, -14.788939 
1488856123.970786, 1488856123.970786, -1.037720, +0.030029, -0.335327, +8.769573, -13.998201, -13.049437 
1488856123.974663, 1488856123.974663, -1.037720, +0.030029, -0.335327, +9.608807, -12.869051, -13.049437 
1488856123.978414, 1488856123.978414, -1.037720, +0.030029, -0.335327, +9.608807, -12.869051, -13.049437 
1488856123.982163, 1488856123.982163, -1.046143, +0.020996, -0.379395, +9.608807, -11.968782, -10.974241 
1488856123.986125, 1488856123.986125, -1.046143, +0.020996, -0.379395, +11.851849, -11.968782, -10.974241 
1488856123.990076, 1488856123.990076, -1.046143, +0.020996, -0.379395, +11.851849, -11.968782, -10.974241 
1488856123.994022, 1488856123.994022, -1.046143, +0.020996, -0.379395, +14.613689, -10.397127, -8.441282 
1488856123.997896, 1488856123.997896, -1.046143, +0.020996, -0.379395, +14.613689, -10.397127, -8.441282 
1488856124.001798, 1488856124.001798, -1.061401, +0.088257, -0.362915, +14.613689, -10.397127, -8.441282 
1488856124.006384, 1488856124.006384, -1.061401, +0.088257, -0.362915, +15.513958, -9.252718, -6.137206 
1488856124.010120, 1488856124.010120, -1.061401, +0.088257, -0.362915, +15.513958, -9.252718, -6.137206 
1488856124.013920, 1488856124.013920, -1.061401, +0.088257, -0.362915, +15.513958, -9.252718, -6.137206 
1488856124.017658, 1488856124.017658, -1.061401, +0.088257, -0.362915, +14.934124, -8.413485, -5.328490 
1488856124.021401, 1488856124.021401, -1.075195, +0.036865, -0.343262, +14.934124, -8.413485, -5.328490 
1488856124.025194, 1488856124.025194, -1.075195, +0.036865, -0.343262, +14.934124, -8.413485, -5.328490 
1488856124.028932, 1488856124.028932, -1.075195, +0.036865, -0.343262, +13.957561, -8.703402, -5.633666 
1488856124.032673, 1488856124.032673, -1.075195, +0.036865, -0.343262, +13.957561, -8.703402, -5.633666 
1488856124.036418, 1488856124.036418, -1.075195, +0.036865, -0.343262, +13.957561, -8.703402, -5.481078 
1488856124.040152, 1488856124.040152, -1.075195, +0.073730, -0.388306, +11.836590, -8.245638, -5.481078 
1488856124.043901, 1488856124.043901, -1.071167, +0.073730, -0.388306, +11.836590, -8.245638, -5.481078 
1488856124.047746, 1488856124.047746, -1.071167, +0.073730, -0.388306, +11.836590, -7.940462, -5.832030 
1488856124.051482, 1488856124.051482, -1.071167, +0.073730, -0.388306, +10.722698, -7.940462, -5.832030 
1488856124.055309, 1488856124.055309, -1.071167, +0.073730, -0.388306, +10.722698, -7.940462, -5.832030 
1488856124.059052, 1488856124.059052, -1.071167, +0.073730, -0.388306, +11.592449, -8.337191, -6.259276 
1488856124.062801, 1488856124.062801, -1.084106, +0.033203, -0.393799, +11.592449, -8.337191, -6.259276 
1488856124.066840, 1488856124.066840, -1.084106, +0.033203, -0.393799, +11.592449, -8.337191, -6.259276 
1488856124.070781, 1488856124.070781, -1.084106, +0.033203, -0.393799, +11.867107, -8.871248, -6.152464 
1488856124.074728, 1488856124.074728, -1.084106, +0.033203, -0.393799, +11.867107, -8.871248, -6.152464 
1488856124.078666, 1488856124.078666, -1.084106, +0.033203, -0.393799, +11.867107, -8.871248, -6.152464 
1488856124.082602, 1488856124.082602, -1.044800, +0.075684, -0.436646, +12.996258, -9.481600, -5.252196 
1488856124.086553, 1488856124.086553, -1.044800, +0.075684, -0.436646, +12.996258, -9.481600, -5.252196 
1488856124.090488, 1488856124.090488, -1.044800, +0.075684, -0.436646, +12.996258, -9.481600, -5.252196 
1488856124.094407, 1488856124.094407, -1.044800, +0.075684, -0.436646, +14.277996, -10.290316, -5.511595 
1488856124.098151, 1488856124.098151, -1.044800, +0.075684, -0.436646, +14.277996, -10.290316, -5.511595 
1488856124.101893, 1488856124.101893, -1.098633, +0.001465, -0.385864, +14.277996, -10.290316, -7.174803 
1488856124.105743, 1488856124.105743, -1.098633, +0.001465, -0.385864, +16.292156, -12.243441, -7.174803 
1488856124.109493, 1488856124.109493, -1.098633, +0.001465, -0.385864, +16.292156, -12.243441, -7.174803 
1488856124.113302, 1488856124.113302, -1.098633, +0.001465, -0.385864, +16.322674, -14.105013, -7.693602 
1488856124.117240, 1488856124.117240, -1.098633, +0.001465, -0.385864, +16.322674, -14.105013, -7.693602 
1488856124.121410, 1488856124.121410, -1.074219, +0.041016, -0.414185, +16.322674, -14.105013, -7.693602 
1488856124.125596, 1488856124.125596, -1.074219, +0.041016, -0.414185, +16.521038, -14.867952, -7.861449 
1488856124.129533, 1488856124.129533, -1.074219, +0.041016, -0.414185, +16.521038, -14.867952, -7.861449 
1488856124.133496, 1488856124.133496, -1.074219, +0.041016, -0.414185, +16.521038, -14.867952, -7.861449 
1488856124.137446, 1488856124.137446, -1.074219, +0.041016, -0.414185, +16.826214, -16.470125, -8.761717 
1488856124.141389, 1488856124.141389, -1.069580, +0.068237, -0.427979, +16.826214, -16.470125, -8.761717 
1488856124.145346, 1488856124.145346, -1.069580, +0.068237, -0.427979, +16.826214, -16.470125, -9.311033 
1488856124.149289, 1488856124.149289, -1.069580, +0.068237, -0.427979, +16.475262, -17.339876, -9.311033 
1488856124.153261, 1488856124.153261, -1.069580, +0.068237, -0.427979, +16.475262, -17.339876, -9.311033 
1488856124.157007, 1488856124.157007, -1.069580, +0.068237, -0.427979, +16.719402, -17.675570, -9.707762 
1488856124.160766, 1488856124.160766, -1.065674, +0.062012, -0.416626, +16.719402, -17.675570, -9.707762 
1488856124.164520, 1488856124.164520, -1.065674, +0.062012, -0.416626, +16.719402, -17.675570, -9.707762 
1488856124.168266, 1488856124.168266, -1.065674, +0.062012, -0.416626, +17.085613, -19.048861, -9.875608 
1488856124.172017, 1488856124.172017, -1.065674, +0.062012, -0.416626, +17.085613, -19.048861, -9.875608 
1488856124.175906, 1488856124.175906, -1.065674, +0.062012, -0.416626, +17.085613, -19.048861, -9.875608 
1488856124.179647, 1488856124.179647, -1.074585, +0.020752, -0.362915, +18.046917, -20.422152, -10.928465 
1488856124.183424, 1488856124.183424, -1.074585, +0.020752, -0.362915, +18.046917, -20.422152, -10.928465 
1488856124.187370, 1488856124.187370, -1.074585, +0.020752, -0.362915, +18.046917, -20.422152, -10.928465 
1488856124.191316, 1488856124.191316, -1.074585, +0.020752, -0.362915, +17.100872, -21.597078, -12.225462 
1488856124.195319, 1488856124.195319, -1.074585, +0.020752, -0.362915, +17.100872, -21.597078, -12.225462 
1488856124.199377, 1488856124.199377, -1.085815, +0.045654, -0.393311, +17.100872, -21.597078, -12.225462 
1488856124.203335, 1488856124.203335, -1.085815, +0.045654, -0.393311, +16.994061, -22.726229, -13.079954 
1488856124.207292, 1488856124.207292, -1.085815, +0.045654, -0.393311, +16.994061, -22.726229, -13.079954 
1488856124.211235, 1488856124.211235, -1.085815, +0.045654, -0.393311, +16.643108, -24.007967, -13.629271 
1488856124.215196, 1488856124.215196, -1.085815, +0.045654, -0.393311, +16.643108, -24.007967, -13.629271 
1488856124.219142, 1488856124.219142, -1.084839, +0.018188, -0.402100, +16.643108, -24.007967, -13.629271 
1488856124.223094, 1488856124.223094, -1.084839, +0.018188, -0.402100, +16.810955, -24.862459, -14.209105 
1488856124.227048, 1488856124.227048, -1.084839, +0.018188, -0.402100, +16.810955, -24.862459, -14.209105 
1488856124.230994, 1488856124.230994, -1.084839, +0.018188, -0.402100, +16.810955, -24.862459, -14.209105 
1488856124.234871, 1488856124.234871, -1.084839, +0.018188, -0.402100, +17.970623, -25.579622, -14.178587 
1488856124.238626, 1488856124.238626, -1.084839, -0.008301, -0.390991, +17.970623, -25.579622, -14.178587 
1488856124.242551, 1488856124.242551, -1.083252, -0.008301, -0.390991, +17.970623, -25.579622, -14.178587 
1488856124.246756, 1488856124.246756, -1.083252, -0.008301, -0.390991, +20.305218, -27.090242, -14.407469 
1488856124.250498, 1488856124.250498, -1.083252, -0.008301, -0.390991, +20.305218, -27.090242, -14.407469 
1488856124.254290, 1488856124.254290, -1.083252, -0.008301, -0.390991, +20.305218, -27.090242, -14.804197 
1488856124.258033, 1488856124.258033, -1.083252, -0.008301, -0.346436, +22.624554, -28.188875, -14.804197 
1488856124.261777, 1488856124.261777, -1.108521, -0.024414, -0.346436, +22.624554, -28.188875, -14.804197 
1488856124.265569, 1488856124.265569, -1.108521, -0.024414, -0.346436, +22.624554, -29.348543, -16.009642 
1488856124.269309, 1488856124.269309, -1.108521, -0.024414, -0.346436, +24.013103, -29.348543, -16.009642 
1488856124.273026, 1488856124.273026, -1.108521, -0.024414, -0.346436, +24.013103, -29.348543, -16.009642 
1488856124.276769, 1488856124.276769, -1.108521, -0.024414, -0.346436, +24.638714, -30.676058, -16.360594 
1488856124.280518, 1488856124.280518, -1.109619, -0.005127, -0.329346, +24.638714, -30.676058, -16.360594 
1488856124.284279, 1488856124.284279, -1.109619, -0.005127, -0.329346, +24.638714, -30.676058, -16.360594 
1488856124.288030, 1488856124.288030, -1.109619, -0.005127, -0.329346, +24.623455, -32.385040, -16.604734 
1488856124.291774, 1488856124.291774, -1.109619, -0.005127, -0.329346, +24.623455, -32.385040, -16.604734 
1488856124.295710, 1488856124.295710, -1.109619, -0.005127, -0.329346, +24.623455, -32.385040, -16.604734 
1488856124.299462, 1488856124.299462, -1.085815, +0.015869, -0.366943, +24.745525, -33.575226, -17.581297 
1488856124.303378, 1488856124.303378, -1.085815, +0.015869, -0.366943, +24.745525, -33.575226, -17.581297 
1488856124.307323, 1488856124.307323, -1.085815, +0.015869, -0.366943, +24.745525, -33.575226, -17.581297 
1488856124.311272, 1488856124.311272, -1.085815, +0.015869, -0.366943, +24.364056, -34.628082, -18.435789 
1488856124.315229, 1488856124.315229, -1.085815, +0.015869, -0.366943, +24.364056, -34.628082, -18.435789 
1488856124.319172, 1488856124.319172, -1.101440, -0.003662, -0.385376, +24.364056, -34.628082, -18.435789 
1488856124.323124, 1488856124.323124, -1.101440, -0.003662, -0.385376, +24.089397, -35.879303, -19.336058 
1488856124.326872, 1488856124.326872, -1.101440, -0.003662, -0.385376, +24.089397, -35.879303, -19.336058 
1488856124.330625, 1488856124.330625, -1.101440, -0.003662, -0.385376, +24.089397, -35.879303, -20.617796 
1488856124.334501, 1488856124.334501, -1.101440, -0.003662, -0.385376, +24.592937, -36.901642, -20.617796 
1488856124.338447, 1488856124.338447, -1.136475, -0.003296, -0.324829, +24.592937, -36.901642, -20.617796 
1488856124.342389, 1488856124.342389, -1.136475, -0.003296, -0.324829, +23.265423, -39.297272, -22.387815 
1488856124.346461, 1488856124.346461, -1.136475, -0.003296, -0.324829, +23.265423, -39.297272, -22.387815 
1488856124.350412, 1488856124.350412, -1.136475, -0.003296, -0.324829, +23.265423, -39.297272, -22.387815 
1488856124.354371, 1488856124.354371, -1.136475, -0.003296, -0.324829, +21.998943, -41.296173, -23.730589 
1488856124.358323, 1488856124.358323, -1.135742, -0.029541, -0.302856, +21.998943, -41.296173, -23.730589 
1488856124.362320, 1488856124.362320, -1.135742, -0.029541, -0.302856, +21.998943, -41.296173, -23.730589 
1488856124.366697, 1488856124.366697, -1.135742, -0.029541, -0.302856, +21.068157, -42.364288, -25.103880 
1488856124.370639, 1488856124.370639, -1.135742, -0.029541, -0.302856, +21.068157, -42.364288, -25.103880 
1488856124.374531, 1488856124.374531, -1.135742, -0.029541, -0.302856, +21.068157, -44.561554, -25.958372 
1488856124.378287, 1488856124.378287, -1.127075, +0.029297, -0.269775, +20.534100, -44.561554, -25.958372 
1488856124.382041, 1488856124.382041, -1.127075, +0.029297, -0.269775, +20.534100, -44.561554, -25.958372 
1488856124.385947, 1488856124.385947, -1.127075, +0.029297, -0.269775, +19.755901, -46.941925, -25.866819 
1488856124.389891, 1488856124.389891, -1.127075, +0.029297, -0.269775, +19.755901, -46.941925, -25.866819 
1488856124.393845, 1488856124.393845, -1.127075, +0.029297, -0.269775, +19.755901, -46.941925, -25.866819 
1488856124.397597, 1488856124.397597, -1.244995, -0.127075, -0.458008, +15.941204, -47.643829, -29.208494 
1488856124.401343, 1488856124.401343, -1.244995, -0.127075, -0.458008, +15.941204, -47.643829, -29.208494 
1488856124.405100, 1488856124.405100, -1.244995, -0.127075, -0.458008, +15.941204, -47.643829, -29.208494 
1488856124.408854, 1488856124.408854, -1.244995, -0.127075, -0.458008, +12.355389, -48.193146, -32.626465 
1488856124.412606, 1488856124.412606, -1.244995, -0.127075, -0.458008, +12.355389, -48.193146, -32.626465 
1488856124.416480, 1488856124.416480, -1.244995, -0.127075, -0.372925, +12.355389, -48.193146, -32.626465 
1488856124.420227, 1488856124.420227, -1.133301, -0.063354, -0.372925, +11.806072, -50.542999, -31.680418 
1488856124.424175, 1488856124.424175, -1.133301, -0.063354, -0.372925, +11.806072, -50.542999, -31.680418 
1488856124.427919, 1488856124.427919, -1.133301, -0.063354, -0.372925, +11.806072, -50.542999, -31.680418 
1488856124.431666, 1488856124.431666, -1.133301, -0.063354, -0.372925, +18.245281, -52.313019, -31.421019 
1488856124.435569, 1488856124.435569, -1.133301, -0.063354, -0.372925, +18.245281, -52.313019, -31.421019 
1488856124.439511, 1488856124.439511, -1.249146, +0.016968, -0.367310, +18.245281, -56.219269, -33.068970 
1488856124.443472, 1488856124.443472, -1.249146, +0.016968, -0.367310, +22.517742, -53.838898, -33.068970 
1488856124.447418, 1488856124.447418, -1.249146, +0.016968, -0.367310, +22.517742, -53.838898, -33.068970 
1488856124.451365, 1488856124.451365, -1.249146, +0.016968, -0.367310, +20.656170, -54.128815, -35.968140 
1488856124.455322, 1488856124.455322, -1.249146, +0.016968, -0.367310, +20.656170, -54.128815, -35.968140 
1488856124.459266, 1488856124.459266, -1.340820, -0.004639, -0.282227, +20.656170, -54.128815, -35.968140 
1488856124.463272, 1488856124.463272, -1.340820, -0.004639, -0.282227, +17.787518, -53.808380, -39.370850 
1488856124.467223, 1488856124.467223, -1.340820, -0.004639, -0.282227, +17.787518, -53.808380, -39.370850 
1488856124.471171, 1488856124.471171, -1.340820, -0.004639, -0.282227, +17.787518, -53.808380, -39.370850 
1488856124.475020, 1488856124.475020, -1.340820, -0.004639, -0.282227, +18.809856, -55.303741, -40.957764 
1488856124.478762, 1488856124.478762, -1.302734, -0.098511, -0.161987, +18.809856, -55.303741, -40.957764 
1488856124.482677, 1488856124.482677, -1.302734, -0.098511, -0.161987, +18.809856, -59.209991, -42.437866 
1488856124.486929, 1488856124.486929, -1.302734, -0.098511, -0.161987, +22.197308, -57.409454, -42.437866 
1488856124.490874, 1488856124.490874, -1.302734, -0.098511, -0.161987, +22.197308, -57.409454, -42.437866 
1488856124.494825, 1488856124.494825, -1.302734, -0.098511, -0.161987, +27.965130, -58.798004, -44.421509 
1488856124.498879, 1488856124.498879, -1.341309, -0.014893, -0.072021, +27.965130, -58.798004, -44.421509 
1488856124.502827, 1488856124.502827, -1.341309, -0.014893, -0.072021, +27.965130, -58.798004, -44.421509 
1488856124.506788, 1488856124.506788, -1.341309, -0.014893, -0.072021, +28.575481, -61.422516, -46.984985 
1488856124.510738, 1488856124.510738, -1.341309, -0.014893, -0.072021, +28.575481, -61.422516, -46.984985 
1488856124.514622, 1488856124.514622, -1.341309, -0.014893, -0.072021, +28.575481, -61.422516, -46.984985 
1488856124.518372, 1488856124.518372, -1.283325, -0.026489, -0.151489, +26.668133, -62.292267, -50.586060 
1488856124.522123, 1488856124.522123, -1.283325, -0.026489, -0.151489, +26.668133, -62.292267, -50.586060 
1488856124.525883, 1488856124.525883, -1.283325, -0.026489, -0.151489, +26.668133, -62.292267, -50.586060 
1488856124.529638, 1488856124.529638, -1.283325, -0.026489, -0.151489, +24.806561, -62.704254, -54.660156 
1488856124.533431, 1488856124.533431, -1.283325, -0.026489, -0.151489, +24.806561, -62.704254, -54.660156 
1488856124.537189, 1488856124.537189, -1.295288, +0.019043, -0.235962, +24.806561, -62.704254, -58.490112 
1488856124.540939, 1488856124.540939, -1.295288, +0.019043, -0.235962, +23.982586, -64.306427, -58.490112 
1488856124.544932, 1488856124.544932, -1.295288, +0.019043, -0.235962, +23.982586, -64.306427, -58.490112 
1488856124.548884, 1488856124.548884, -1.295288, +0.019043, -0.235962, +25.752605, -64.825226, -60.885742 
1488856124.552823, 1488856124.552823, -1.295288, +0.019043, -0.235962, +25.752605, -64.825226, -60.885742 
1488856124.556782, 1488856124.556782, -1.313477, +0.036499, -0.256714, +25.752605, -64.825226, -60.885742 
1488856124.560727, 1488856124.560727, -1.313477, +0.036499, -0.256714, +27.659954, -66.213776, -63.021973 
1488856124.564685, 1488856124.564685, -1.313477, +0.036499, -0.256714, +27.659954, -66.213776, -63.021973 
1488856124.568637, 1488856124.568637, -1.313477, +0.036499, -0.256714, +27.659954, -66.213776, -63.021973 
1488856124.572581, 1488856124.572581, -1.313477, +0.036499, -0.256714, +30.437054, -67.617584, -65.173462 
1488856124.576359, 1488856124.576359, -1.357788, -0.016113, -0.247803, +30.437054, -67.617584, -65.173462 
1488856124.580111, 1488856124.580111, -1.357788, -0.016113, -0.247803, +30.437054, -67.617584, -65.173462 
1488856124.583927, 1488856124.583927, -1.357788, -0.016113, -0.247803, +31.550945, -68.227936, -66.684082 
1488856124.587871, 1488856124.587871, -1.357788, -0.016113, -0.247803, +31.550945, -68.227936, -66.684082 
1488856124.591828, 1488856124.591828, -1.357788, -0.016113, -0.247803, +31.550945, -72.134186, -66.745117 
1488856124.595792, 1488856124.595792, -1.295288, -0.068604, -0.282959, +30.894817, -68.914581, -66.745117 
1488856124.599829, 1488856124.599829, -1.297974, -0.068604, -0.282959, +30.894817, -68.914581, -66.745117 
1488856124.604191, 1488856124.604191, -1.297974, -0.068604, -0.282959, +33.229412, -69.280792, -66.455200 
1488856124.608144, 1488856124.608144, -1.297974, -0.068604, -0.282959, +33.229412, -69.280792, -66.455200 
1488856124.612097, 1488856124.612097, -1.297974, -0.068604, -0.282959, +33.229412, -69.280792, -66.455200 
1488856124.616092, 1488856124.616092, -1.153076, -0.201538, -0.311890, +34.022869, -68.151642, -66.058472 
1488856124.620046, 1488856124.620046, -1.153076, -0.201538, -0.311890, +34.022869, -68.151642, -66.058472 
1488856124.624170, 1488856124.624170, -1.153076, -0.201538, -0.311890, +34.022869, -68.151642, -66.058472 
1488856124.627925, 1488856124.627925, -1.153076, -0.201538, -0.311890, +31.978191, -64.581085, -65.615967 
1488856124.631672, 1488856124.631672, -1.153076, -0.201538, -0.311890, +31.978191, -64.581085, -65.615967 
1488856124.635431, 1488856124.635431, -1.153076, -0.435059, -0.302246, +31.978191, -64.581085, -65.097168 
1488856124.639182, 1488856124.639182, -1.027832, -0.435059, -0.302246, +32.237591, -59.347321, -65.097168 
1488856124.642920, 1488856124.642920, -1.027832, -0.435059, -0.302246, +32.237591, -59.347321, -65.097168 
1488856124.646842, 1488856124.646842, -1.027832, -0.435059, -0.302246, +32.237591, -51.748444, -63.922241 
1488856124.650588, 1488856124.650588, -1.027832, -0.435059, -0.302246, +33.626141, -51.748444, -63.922241 
1488856124.654338, 1488856124.654338, -1.027832, -0.435059, -0.302246, +33.626141, -51.748444, -63.922241 
1488856124.658085, 1488856124.658085, -0.831421, -0.360718, -0.385864, +38.859905, -41.998077, -56.628540 
1488856124.661829, 1488856124.661829, -0.831421, -0.360718, -0.385864, +38.859905, -41.998077, -56.628540 
1488856124.665742, 1488856124.665742, -0.831421, -0.360718, -0.385864, +38.859905, -41.998077, -56.628540 
1488856124.669484, 1488856124.669484, -0.831421, -0.360718, -0.385864, +52.608074, -32.507111, -38.150146 
1488856124.673379, 1488856124.673379, -0.831421, -0.360718, -0.385864, +52.608074, -32.507111, -38.150146 
1488856124.677136, 1488856124.677136, -0.654297, -0.016113, -0.349487, +52.608074, -32.507111, -38.150146 
1488856124.680888, 1488856124.680888, -0.654297, -0.016113, -0.349487, +64.464157, -25.732210, -15.017820 
1488856124.684739, 1488856124.684739, -0.654297, -0.016113, -0.349487, +64.464157, -25.732210, -15.017820 
1488856124.688693, 1488856124.688693, -0.654297, -0.016113, -0.349487, +64.464157, -25.732210, -15.017820 
1488856124.692645, 1488856124.692645, -0.654297, -0.016113, -0.349487, +77.449387, -19.949129, +4.727052 
1488856124.696599, 1488856124.696599, -0.518188, +0.171753, -0.250488, +77.449387, -19.949129, +4.727052 
1488856124.700542, 1488856124.700542, -0.518188, +0.171753, -0.250488, +77.449387, -19.949129, +20.809816 
1488856124.704497, 1488856124.704497, -0.518188, +0.171753, -0.250488, +87.123459, -13.372591, +20.809816 
1488856124.708444, 1488856124.708444, -0.518188, +0.171753, -0.250488, +87.123459, -13.372591, +20.809816 
1488856124.712387, 1488856124.712387, -0.518188, +0.171753, -0.250488, +86.787766, -4.339388, +33.444092 
1488856124.716349, 1488856124.716349, -0.541870, +0.252075, -0.199707, +86.787766, -4.339388, +33.444092 
1488856124.720304, 1488856124.720304, -0.541870, +0.252075, -0.199707, +86.787766, -4.339388, +33.444092 
1488856124.724243, 1488856124.724243, -0.541870, +0.252075, -0.199707, +80.333298, +6.372282, +44.308350 
1488856124.728001, 1488856124.728001, -0.541870, +0.252075, -0.199707, +80.333298, +6.372282, +44.308350 
1488856124.731990, 1488856124.731990, -0.541870, +0.252075, -0.199707, +80.333298, +6.372282, +44.308350 
1488856124.736319, 1488856124.736319, -0.618042, +0.336670, -0.085571, +65.608566, +17.984221, +53.005859 
1488856124.740273, 1488856124.740273, -0.618042, +0.336670, -0.085571, +65.608566, +17.984221, +53.005859 
1488856124.744223, 1488856124.744223, -0.618042, +0.336670, -0.085571, +65.608566, +17.984221, +59.490845 
1488856124.748174, 1488856124.748174, -0.618042, +0.336670, -0.085571, +44.124187, +30.496428, +59.490845 
1488856124.752115, 1488856124.752115, -0.618042, +0.336670, -0.085571, +44.124187, +30.496428, +59.490845 
1488856124.756112, 1488856124.756112, -0.722290, +0.312744, -0.088257, +21.892132, +43.374847, +64.114258 
1488856124.760058, 1488856124.760058, -0.722290, +0.312744, -0.088257, +21.892132, +43.374847, +64.114258 
1488856124.763963, 1488856124.763963, -0.722290, +0.312744, -0.088257, +21.892132, +43.374847, +64.114258 
1488856124.767718, 1488856124.767718, -0.722290, +0.312744, -0.088257, +0.590863, +53.094696, +67.837402 
1488856124.771471, 1488856124.771471, -0.722290, +0.312744, -0.088257, +0.590863, +53.094696, +67.837402 
1488856124.775237, 1488856124.775237, -0.799805, +0.221069, -0.040894, +0.590863, +53.094696, +67.837402 
1488856124.778984, 1488856124.778984, -0.799805, +0.221069, -0.040894, -16.560017, +60.296844, +72.033569 
1488856124.782739, 1488856124.782739, -0.799805, +0.221069, -0.040894, -16.560017, +60.296844, +72.033569 
1488856124.786662, 1488856124.786662, -0.799805, +0.221069, -0.040894, -16.560017, +60.296844, +72.033569 
1488856124.790413, 1488856124.790413, -0.799805, +0.221069, -0.040894, -32.505451, +65.957855, +77.664062 
1488856124.794495, 1488856124.794495, -0.908691, +0.198486, -0.026611, -32.505451, +65.957855, +77.664062 
1488856124.798450, 1488856124.798450, -0.908691, +0.198486, -0.026611, -32.505451, +65.957855, +83.645508 
1488856124.802403, 1488856124.802403, -0.908691, +0.198486, -0.026611, -47.581135, +70.916962, +83.645508 
1488856124.806357, 1488856124.806357, -0.908691, +0.198486, -0.026611, -47.581135, +70.916962, +83.645508 
1488856124.810312, 1488856124.810312, -0.908691, +0.198486, -0.026611, -59.208332, +75.631927, +90.237305 
1488856124.814302, 1488856124.814302, -0.971191, +0.119507, -0.133301, -59.208332, +75.631927, +90.237305 
1488856124.818259, 1488856124.818259, -0.985107, +0.119507, -0.133301, -59.208332, +75.631927, +90.237305 
1488856124.822209, 1488856124.822209, -0.985107, +0.119507, -0.133301, -66.746170, +78.500580, +96.340820 
1488856124.826022, 1488856124.826022, -0.985107, +0.119507, -0.133301, -66.746170, +78.500580, +96.340820 
1488856124.829770, 1488856124.829770, -0.985107, +0.119507, -0.133301, -66.746170, +78.500580, +96.340820 
1488856124.833560, 1488856124.833560, -0.985107, +0.057007, -0.173584, -71.506912, +79.767059, +102.627441 
1488856124.837523, 1488856124.837523, -1.085449, +0.043945, -0.173584, -71.506912, +79.767059, +102.627441 
1488856124.841469, 1488856124.841469, -1.085449, +0.043945, -0.173584, -71.506912, +79.767059, +102.627441 
1488856124.845437, 1488856124.845437, -1.085449, +0.043945, -0.173584, -72.819168, +79.461884, +109.112427 
1488856124.849423, 1488856124.849423, -1.085449, +0.043945, -0.173584, -72.819168, +79.461884, +109.112427 
1488856124.853766, 1488856124.853766, -1.085449, -0.095703, -0.200806, -71.049149, +78.515839, +115.200684 
1488856124.857718, 1488856124.857718, -1.216187, -0.095703, -0.200806, -71.049149, +78.515839, +115.200684 
1488856124.861665, 1488856124.861665, -1.216187, -0.095703, -0.200806, -71.049149, +78.515839, +115.200684 
1488856124.865625, 1488856124.865625, -1.216187, -0.095703, -0.200806, -64.640457, +78.058075, +121.639893 
1488856124.869572, 1488856124.869572, -1.216187, -0.095703, -0.200806, -64.640457, +78.058075, +121.639893 
1488856124.873516, 1488856124.873516, -1.216187, -0.125610, -0.223022, -64.640457, +78.058075, +121.639893 
1488856124.877269, 1488856124.877269, -1.283081, -0.125610, -0.223022, -55.210529, +77.020477, +127.865479 
1488856124.881019, 1488856124.881019, -1.283081, -0.125610, -0.223022, -55.210529, +77.020477, +127.865479 
1488856124.884823, 1488856124.884823, -1.283081, -0.125610, -0.223022, -55.210529, +77.020477, +127.865479 
1488856124.888576, 1488856124.888576, -1.283081, -0.125610, -0.223022, -46.909748, +76.165985, +133.328125 
1488856124.892330, 1488856124.892330, -1.283081, -0.125610, -0.223022, -46.909748, +76.165985, +133.328125 
1488856124.896128, 1488856124.896128, -1.313965, -0.046143, -0.188721, -46.909748, +76.165985, +133.328125 
1488856124.899883, 1488856124.899883, -1.313965, -0.046143, -0.188721, -43.308674, +75.799774, +136.425659 
1488856124.903786, 1488856124.903786, -1.313965, -0.046143, -0.188721, -43.308674, +75.799774, +136.425659 
1488856124.907543, 1488856124.907543, -1.313965, -0.046143, -0.188721, -43.308674, +75.799774, +137.783691 
1488856124.911294, 1488856124.911294, -1.313965, -0.046143, -0.188721, -41.447102, +75.738739, +137.783691 
1488856124.915323, 1488856124.915323, -1.359985, -0.044556, -0.202637, -41.447102, +75.738739, +137.783691 
1488856124.919271, 1488856124.919271, -1.359985, -0.044556, -0.202637, -39.524494, +75.433563, +137.875244 
1488856124.923252, 1488856124.923252, -1.359985, -0.044556, -0.202637, -39.524494, +75.433563, +137.875244 
1488856124.927003, 1488856124.927003, -1.359985, -0.044556, -0.202637, -39.524494, +75.433563, +137.875244 
1488856124.930753, 1488856124.930753, -1.359985, -0.044556, -0.202637, -39.600788, +74.899506, +137.509033 
1488856124.934631, 1488856124.934631, -1.380371, -0.002930, -0.207397, -39.600788, +74.899506, +137.509033 
1488856124.938582, 1488856124.938582, -1.380371, -0.002930, -0.207397, -39.600788, +74.899506, +137.509033 
1488856124.942638, 1488856124.942638, -1.380371, -0.002930, -0.207397, -41.920124, +74.518036, +136.425659 
1488856124.946604, 1488856124.946604, -1.380371, -0.002930, -0.207397, -41.920124, +74.518036, +136.425659 
1488856124.950552, 1488856124.950552, -1.380371, -0.002930, -0.207397, -41.920124, +74.518036, +136.425659 
1488856124.954519, 1488856124.954519, -1.328247, -0.038452, -0.219482, -46.711384, +74.090790, +133.602783 
1488856124.958459, 1488856124.958459, -1.328247, -0.038452, -0.219482, -46.711384, +74.090790, +133.602783 
1488856124.962412, 1488856124.962412, -1.328247, -0.038452, -0.219482, -50.617634, +75.677704, +130.444214 
1488856124.966375, 1488856124.966375, -1.328247, -0.038452, -0.219482, -51.594196, +75.677704, +130.444214 
1488856124.970564, 1488856124.970564, -1.328247, -0.038452, -0.219482, -51.594196, +75.677704, +130.444214 
1488856124.974579, 1488856124.974579, -1.348022, +0.027832, -0.255615, -55.958210, +77.279877, +127.606079 
1488856124.978329, 1488856124.978329, -1.348022, +0.027832, -0.255615, -55.958210, +77.279877, +127.606079 
1488856124.982093, 1488856124.982093, -1.348022, +0.027832, -0.255615, -55.958210, +77.279877, +127.606079 
1488856124.986010, 1488856124.986010, -1.348022, +0.027832, -0.255615, -61.024128, +77.524017, +124.691650 
1488856124.989959, 1488856124.989959, -1.348022, +0.027832, -0.255615, -61.024128, +77.524017, +124.691650 
1488856124.993919, 1488856124.993919, -1.361206, +0.027954, -0.278931, -61.024128, +77.524017, +124.691650 
1488856124.997871, 1488856124.997871, -1.361206, +0.027954, -0.278931, -65.662796, +77.768158, +121.655151 
1488856125.001817, 1488856125.001817, -1.361206, +0.027954, -0.278931, -65.662796, +77.768158, +121.655151 
1488856125.005645, 1488856125.005645, -1.361206, +0.027954, -0.278931, -65.662796, +77.768158, +118.618652 
1488856125.009406, 1488856125.009406, -1.361206, +0.027954, -0.278931, -69.904739, +77.356171, +118.618652 
1488856125.013209, 1488856125.013209, -1.349854, +0.017700, -0.305420, -69.904739, +77.356171, +118.618652 
1488856125.016970, 1488856125.016970, -1.349854, +0.017700, -0.305420, -69.904739, +76.928925, +115.643188 
1488856125.020727, 1488856125.020727, -1.349854, +0.017700, -0.305420, -72.407181, +76.928925, +115.643188 
1488856125.024589, 1488856125.024589, -1.349854, +0.017700, -0.305420, -72.407181, +76.928925, +115.643188 
1488856125.028343, 1488856125.028343, -1.349854, +0.017700, -0.305420, -74.390823, +75.692963, +111.645386 
1488856125.032102, 1488856125.032102, -1.349854, +0.048950, -0.287231, -74.390823, +75.692963, +111.645386 
1488856125.036116, 1488856125.036116, -1.375854, +0.041260, -0.287231, -74.390823, +75.692963, +111.645386 
1488856125.040065, 1488856125.040065, -1.375854, +0.041260, -0.287231, -76.618607, +73.037933, +107.617065 
1488856125.044018, 1488856125.044018, -1.375854, +0.041260, -0.287231, -76.618607, +73.037933, +107.617065 
1488856125.047963, 1488856125.047963, -1.375854, +0.041260, -0.287231, -76.618607, +73.037933, +107.617065 
1488856125.051916, 1488856125.051916, -1.375854, -0.021240, -0.244019, -78.846390, +68.597626, +103.222534 
1488856125.055904, 1488856125.055904, -1.363525, -0.013794, -0.244019, -78.846390, +68.597626, +103.222534 
1488856125.059858, 1488856125.059858, -1.363525, -0.013794, -0.244019, -78.846390, +68.597626, +97.683594 
1488856125.063776, 1488856125.063776, -1.363525, -0.013794, -0.244019, -80.677444, +63.104462, +97.683594 
1488856125.067522, 1488856125.067522, -1.363525, -0.013794, -0.244019, -80.677444, +63.104462, +97.683594 
1488856125.071278, 1488856125.071278, -1.363525, -0.013794, -0.244019, -80.677444, +57.184052, +92.907593 
1488856125.075253, 1488856125.075253, -1.379883, -0.219727, -0.200684, -76.054031, +57.184052, +92.907593 
1488856125.079009, 1488856125.079009, -1.379883, -0.219727, -0.200684, -76.054031, +57.184052, +92.907593 
1488856125.082760, 1488856125.082760, -1.379883, -0.219727, -0.200684, -65.540726, +50.729584, +88.131592 
1488856125.086760, 1488856125.086760, -1.379883, -0.219727, -0.200684, -65.540726, +50.729584, +88.131592 
1488856125.090883, 1488856125.090883, -1.379883, -0.219727, -0.200684, -65.540726, +50.729584, +88.131592 
1488856125.095134, 1488856125.095134, -1.286621, -0.257812, -0.270020, -52.204548, +43.771576, +82.607910 
1488856125.099080, 1488856125.099080, -1.286621, -0.257812, -0.270020, -52.204548, +43.771576, +82.607910 
1488856125.103041, 1488856125.103041, -1.286621, -0.257812, -0.270020, -52.204548, +43.771576, +82.607910 
1488856125.106999, 1488856125.106999, -1.286621, -0.257812, -0.270020, -35.129963, +37.866425, +76.931641 
1488856125.110944, 1488856125.110944, -1.286621, -0.257812, -0.238770, -35.129963, +37.866425, +76.931641 
1488856125.114905, 1488856125.114905, -1.186768, -0.269043, -0.237427, -15.598713, +32.327484, +69.775269 
1488856125.118852, 1488856125.118852, -1.186768, -0.269043, -0.237427, -17.689167, +32.327484, +69.775269 
1488856125.122794, 1488856125.122794, -1.186768, -0.269043, -0.237427, -17.689167, +32.327484, +69.775269 
1488856125.126572, 1488856125.126572, -1.186768, -0.269043, -0.237427, -3.956256, +27.246305, +61.535522 
1488856125.130320, 1488856125.130320, -1.186768, -0.269043, -0.237427, -3.956256, +27.246305, +61.535522 
1488856125.134081, 1488856125.134081, -1.168091, -0.270752, -0.172974, -3.956256, +27.246305, +61.535522 
1488856125.137831, 1488856125.137831, -1.168091, -0.270752, -0.172974, +6.221356, +22.790739, +51.037476 
1488856125.141581, 1488856125.141581, -1.168091, -0.270752, -0.172974, +6.221356, +22.790739, +51.037476 
1488856125.145506, 1488856125.145506, -1.168091, -0.270752, -0.172974, +6.221356, +22.790739, +51.037476 
1488856125.149257, 1488856125.149257, -1.168091, -0.270752, -0.172974, +12.889446, +17.022917, +37.686035 
1488856125.153119, 1488856125.153119, -1.200439, -0.204224, -0.169922, +12.889446, +17.022917, +37.686035 
1488856125.157069, 1488856125.157069, -1.200439, -0.204224, -0.169922, +12.889446, +17.022917, +37.686035 
1488856125.161022, 1488856125.161022, -1.200439, -0.204224, -0.169922, +16.032757, +9.744474, +24.029421 
1488856125.164974, 1488856125.164974, -1.200439, -0.204224, -0.169922, +16.032757, +9.744474, +24.029421 
1488856125.168925, 1488856125.168925, -1.200439, -0.204224, -0.169922, +16.032757, +9.744474, +9.762453 
1488856125.172863, 1488856125.172863, -1.149902, -0.161133, -0.144043, +18.687786, +2.801725, +9.762453 
1488856125.176634, 1488856125.176634, -1.149902, -0.161133, -0.144043, +18.687786, +2.801725, +9.762453 
1488856125.180385, 1488856125.180385, -1.149902, -0.161133, -0.144043, +22.594036, -3.118685, -3.375365 
1488856125.184190, 1488856125.184190, -1.149902, -0.161133, -0.144043, +21.236004, -3.118685, -3.375365 
1488856125.188139, 1488856125.188139, -1.149902, -0.161133, -0.144043, +21.236004, -3.118685, -3.375365 
1488856125.192080, 1488856125.192080, -1.179321, -0.035645, -0.106567, +20.946087, -8.199862, -14.499022 
1488856125.196034, 1488856125.196034, -1.179321, -0.035645, -0.106567, +20.946087, -8.199862, -14.499022 
1488856125.199980, 1488856125.199980, -1.179321, -0.035645, -0.106567, +20.946087, -8.199862, -14.499022 
1488856125.203941, 1488856125.203941, -1.179321, -0.035645, -0.106567, +19.816936, -13.860872, -24.554564 
1488856125.207889, 1488856125.207889, -1.179321, -0.035645, -0.106567, +19.816936, -13.860872, -24.554564 
1488856125.212013, 1488856125.212013, -1.202271, -0.043457, -0.098511, +19.816936, -13.860872, -34.625366 
1488856125.216362, 1488856125.216362, -1.202271, -0.043457, -0.098511, +19.710125, -19.125154, -34.625366 
1488856125.220314, 1488856125.220314, -1.202271, -0.043457, -0.098511, +19.710125, -19.125154, -34.625366 
1488856125.224246, 1488856125.224246, -1.202271, -0.043457, -0.098511, +19.282879, -22.863558, -44.467285 
1488856125.227999, 1488856125.227999, -1.202271, -0.043457, -0.098511, +19.282879, -22.863558, -44.467285 
1488856125.231747, 1488856125.231747, -1.189575, +0.045898, -0.148193, +19.282879, -22.863558, -44.467285 
1488856125.235642, 1488856125.235642, -1.189575, +0.045898, -0.148193, +17.345013, -25.320223, -53.042725 
1488856125.239589, 1488856125.239589, -1.189575, +0.045898, -0.148193, +17.345013, -25.320223, -53.042725 
1488856125.243648, 1488856125.243648, -1.189575, +0.045898, -0.148193, +17.345013, -25.320223, -53.042725 
1488856125.247402, 1488856125.247402, -1.189575, +0.045898, -0.148193, +13.270916, -26.510408, -58.993652 
1488856125.251159, 1488856125.251159, -1.202637, +0.347656, -0.114014, +13.270916, -26.510408, -58.993652 
1488856125.254913, 1488856125.254913, -1.202637, +0.347656, -0.114014, +13.270916, -26.510408, -58.993652 
1488856125.258664, 1488856125.258664, -1.202637, +0.347656, -0.114014, +4.710736, -29.760530, -63.250854 
1488856125.262414, 1488856125.262414, -1.202637, +0.347656, -0.114014, +4.710736, -29.760530, -63.250854 
1488856125.266295, 1488856125.266295, -1.202637, +0.347656, -0.114014, +4.710736, -29.760530, -63.250854 
1488856125.270050, 1488856125.270050, -1.202637, +0.347656, -0.217041, -5.604206, -30.950716, -66.607788 
1488856125.273961, 1488856125.273961, -1.116333, +0.437256, -0.217041, -5.604206, -30.950716, -66.607788 
1488856125.277705, 1488856125.277705, -1.116333, +0.437256, -0.217041, -5.604206, -30.950716, -67.111328 
1488856125.281455, 1488856125.281455, -1.116333, +0.437256, -0.217041, -16.575275, -28.875521, -67.111328 
1488856125.285338, 1488856125.285338, -1.116333, +0.437256, -0.217041, -16.575275, -28.875521, -67.111328 
1488856125.289283, 1488856125.289283, -1.116333, +0.437256, -0.217041, -22.663532, -24.313143, -64.990356 
1488856125.293271, 1488856125.293271, -0.949463, +0.559326, -0.337769, -22.663532, -24.313143, -64.990356 
1488856125.297221, 1488856125.297221, -0.949463, +0.559326, -0.337769, -22.663532, -24.313143, -64.990356 
1488856125.301167, 1488856125.301167, -0.949463, +0.559326, -0.337769, -26.279865, -18.514803, -61.129883 
1488856125.305123, 1488856125.305123, -0.949463, +0.559326, -0.337769, -26.279865, -18.514803, -61.129883 
1488856125.309070, 1488856125.309070, -0.949463, +0.559326, -0.337769, -26.279865, -18.514803, -61.129883 
1488856125.313022, 1488856125.313022, -0.707764, +1.418091, -0.855347, -42.942463, -9.344271, -53.271606 
1488856125.316970, 1488856125.316970, -0.707764, +1.418091, -0.855347, -42.942463, -9.344271, -53.271606 
1488856125.320918, 1488856125.320918, -0.707764, +1.418091, -0.855347, -42.942463, -9.344271, -29.834105 
1488856125.324835, 1488856125.324835, -0.707764, +1.418091, -0.855347, -66.822464, +1.535246, -32.016113 
1488856125.328582, 1488856125.328582, -0.707764, +1.418091, -0.855347, -66.822464, +1.535246, -32.016113 
1488856125.332495, 1488856125.332495, -0.856934, +1.107300, -0.534424, -66.822464, +16.931364, -4.306151 
1488856125.336580, 1488856125.336580, -0.856934, +1.107300, -0.534424, -38.731037, +16.931364, -4.306151 
1488856125.340532, 1488856125.340532, -0.856934, +1.107300, -0.534424, -38.731037, +16.931364, -4.306151 
1488856125.344487, 1488856125.344487, -0.856934, +1.107300, -0.534424, -18.711506, +18.258879, -3.772093 
1488856125.348431, 1488856125.348431, -0.856934, +1.107300, -0.534424, -18.711506, +18.258879, -3.772093 
1488856125.352382, 1488856125.352382, -1.459595, -0.267700, +0.104492, -18.711506, +18.258879, -3.772093 
1488856125.356335, 1488856125.356335, -1.459595, -0.267700, +0.104492, -27.241169, +4.953215, -20.770384 
1488856125.360287, 1488856125.360287, -1.459595, -0.267700, +0.104492, -27.241169, +4.953215, -20.770384 
1488856125.364220, 1488856125.364220, -1.459595, -0.267700, +0.104492, -27.241169, +4.953215, -20.770384 
1488856125.367976, 1488856125.367976, -1.459595, -0.267700, +0.104492, -30.414997, -4.095247, -32.916382 
1488856125.371726, 1488856125.371726, -1.280029, +0.232422, -0.273682, -30.414997, -4.095247, -32.916382 
1488856125.375485, 1488856125.375485, -1.280029, +0.232422, -0.273682, -30.414997, -4.095247, -40.728882 
1488856125.379234, 1488856125.379234, -1.280029, +0.232422, -0.273682, -29.941975, -2.737215, -38.897827 
1488856125.383119, 1488856125.383119, -1.280029, +0.232422, -0.273682, -29.941975, -2.737215, -38.897827 
1488856125.386882, 1488856125.386882, -1.280029, +0.232422, -0.273682, -29.941975, +5.075285, -43.353394 
1488856125.390736, 1488856125.390736, -1.196045, +0.629761, -0.268066, -27.958332, +2.466032, -43.353394 
1488856125.394654, 1488856125.394654, -1.196045, +0.629761, -0.268066, -27.958332, +2.466032, -43.353394 
1488856125.398573, 1488856125.398573, -1.196045, +0.629761, -0.268066, -34.061848, +1.779387, -46.405151 
1488856125.402522, 1488856125.402522, -1.196045, +0.629761, -0.268066, -34.061848, +1.779387, -46.405151 
1488856125.406500, 1488856125.406500, -1.196045, +0.629761, -0.268066, -34.061848, +1.779387, -46.405151 
1488856125.410430, 1488856125.410430, -1.172241, +0.338867, -0.275513, -50.327717, +1.108000, -50.647095 
1488856125.414372, 1488856125.414372, -1.172241, +0.338867, -0.275513, -50.327717, +1.108000, -50.647095 
1488856125.418298, 1488856125.418298, -1.172241, +0.338867, -0.275513, -50.327717, +1.108000, -50.647095 
1488856125.422232, 1488856125.422232, -1.172241, +0.338867, -0.275513, -58.597980, +2.054045, -54.721191 
1488856125.426141, 1488856125.426141, -1.172241, +0.338867, -0.275513, -58.597980, +2.054045, -54.721191 
1488856125.430034, 1488856125.430034, -1.084839, +0.137085, -0.343994, -58.597980, +2.054045, -55.850342 
1488856125.433948, 1488856125.433948, -1.084839, +0.137085, -0.343994, -56.644855, +1.596281, -55.850342 
1488856125.437895, 1488856125.437895, -1.084839, +0.137085, -0.343994, -56.644855, +1.596281, -55.850342 
1488856125.441844, 1488856125.441844, -1.084839, +0.137085, -0.343994, -48.130451, +1.626799, -54.065063 
1488856125.445796, 1488856125.445796, -1.084839, +0.137085, -0.343994, -48.130451, +1.626799, -54.065063 
1488856125.449842, 1488856125.449842, -1.032715, +0.089966, -0.370972, -48.130451, +1.626799, -54.065063 
1488856125.453900, 1488856125.453900, -1.032715, +0.089966, -0.370972, -34.992634, +1.626799, -50.540283 
1488856125.458364, 1488856125.458364, -1.032715, +0.089966, -0.370972, -34.992634, +1.626799, -50.540283 
1488856125.462108, 1488856125.462108, -1.032715, +0.089966, -0.370972, -34.992634, +1.626799, -50.540283 
1488856125.465882, 1488856125.465882, -1.032715, +0.089966, -0.370972, -21.473347, +0.940153, -45.794800 
1488856125.469625, 1488856125.469625, -0.984375, +0.064575, -0.482422, -21.473347, +0.940153, -45.794800 
1488856125.473369, 1488856125.473369, -0.984375, +0.064575, -0.482422, -21.473347, +0.940153, -45.794800 
1488856125.477116, 1488856125.477116, -0.984375, +0.064575, -0.482422, -8.137165, -0.204256, -41.385010 
1488856125.480850, 1488856125.480850, -0.984375, +0.064575, -0.482422, -8.137165, -0.204256, -41.385010 
1488856125.484647, 1488856125.484647, -0.984375, +0.064575, -0.482422, -8.137165, -0.204256, -38.058594 
1488856125.488387, 1488856125.488387, -0.984375, +0.064575, -0.442017, +4.115643, -1.745394, -38.058594 
1488856125.492127, 1488856125.492127, -0.979492, +0.128784, -0.442017, +4.115643, -1.745394, -38.058594 
1488856125.495869, 1488856125.495869, -0.979492, +0.128784, -0.442017, +4.115643, -1.745394, -36.151245 
1488856125.499603, 1488856125.499603, -0.979492, +0.128784, -0.442017, +8.693279, -1.730135, -36.151245 
1488856125.503460, 1488856125.503460, -0.979492, +0.128784, -0.442017, +8.693279, -1.730135, -36.151245 
1488856125.507218, 1488856125.507218, -0.979492, +0.128784, -0.442017, +9.318890, -0.585726, -35.067871 
1488856125.510964, 1488856125.510964, -1.015747, +0.236328, -0.390015, +9.318890, -0.585726, -35.067871 
1488856125.514794, 1488856125.514794, -1.015747, +0.236328, -0.390015, +9.318890, -0.585726, -35.067871 
1488856125.518532, 1488856125.518532, -1.015747, +0.236328, -0.390015, +6.206097, -0.219515, -34.869507 
1488856125.522278, 1488856125.522278, -1.015747, +0.236328, -0.390015, +6.206097, -0.219515, -34.869507 
1488856125.526140, 1488856125.526140, -1.015747, +0.236328, -0.390015, +6.206097, -0.219515, -34.869507 
1488856125.530025, 1488856125.530025, -1.051025, +0.227539, -0.276978, +3.032269, +1.260588, -34.625366 
1488856125.534088, 1488856125.534088, -1.051025, +0.227539, -0.276978, +3.032269, +1.260588, -34.625366 
1488856125.538032, 1488856125.538032, -1.051025, +0.227539, -0.276978, +3.032269, +1.260588, -34.625366 
1488856125.542087, 1488856125.542087, -1.051025, +0.227539, -0.276978, +0.514569, +1.977751, -34.579590 
1488856125.545878, 1488856125.545878, -1.051025, +0.227539, -0.276978, +0.514569, +1.977751, -34.579590 
1488856125.549618, 1488856125.549618, -1.045898, +0.267944, -0.270264, +0.514569, +1.977751, -34.579590 
1488856125.553509, 1488856125.553509, -1.045898, +0.267944, -0.270264, -3.315387, +3.091642, -34.884766 
1488856125.557267, 1488856125.557267, -1.045898, +0.267944, -0.270264, -3.315387, +3.091642, -34.884766 
1488856125.561009, 1488856125.561009, -1.045898, +0.267944, -0.270264, -3.315387, +3.091642, -35.189941 
1488856125.564819, 1488856125.564819, -1.045898, +0.267944, -0.270264, -9.418903, +4.602262, -35.189941 
1488856125.568571, 1488856125.568571, -1.045898, +0.265991, -0.336670, -9.418903, +4.602262, -35.189941 
1488856125.572521, 1488856125.572521, -1.040405, +0.265991, -0.336670, -15.736042, +6.112883, -35.525635 
1488856125.576895, 1488856125.576895, -1.040405, +0.265991, -0.336670, -15.736042, +6.112883, -35.525635 
1488856125.580842, 1488856125.580842, -1.040405, +0.265991, -0.336670, -15.736042, +6.112883, -35.525635 
1488856125.584801, 1488856125.584801, -1.040405, +0.265991, -0.336670, -18.757282, +7.333586, -35.113647 
1488856125.588750, 1488856125.588750, -1.085938, +0.050781, -0.353638, -18.757282, +7.333586, -35.113647 
1488856125.592701, 1488856125.592701, -1.085938, +0.050781, -0.353638, -18.757282, +7.333586, -35.113647 
1488856125.596696, 1488856125.596696, -1.085938, +0.050781, -0.353638, -17.185627, +7.882902, -33.099487 
1488856125.600643, 1488856125.600643, -1.085938, +0.050781, -0.353638, -17.185627, +7.882902, -33.099487 
1488856125.604530, 1488856125.604530, -1.085938, +0.050781, -0.353638, -17.185627, +7.882902, -29.696775 
1488856125.608275, 1488856125.608275, -1.054688, +0.024170, -0.409546, -12.348591, +7.806608, -29.696775 
1488856125.612021, 1488856125.612021, -1.051270, +0.024170, -0.409546, -12.348591, +7.806608, -29.696775 
1488856125.615795, 1488856125.615795, -1.051270, +0.024170, -0.409546, -12.348591, +8.584806, -24.737669 
1488856125.619551, 1488856125.619551, -1.051270, +0.024170, -0.409546, -6.428180, +8.584806, -24.737669 
1488856125.623414, 1488856125.623414, -1.051270, +0.024170, -0.409546, -6.428180, +8.584806, -24.737669 
1488856125.627164, 1488856125.627164, -1.051270, +0.024170, -0.472046, +0.026288, +9.988615, -19.778563 
1488856125.630912, 1488856125.630912, -1.068359, +0.088867, -0.473755, +0.026288, +9.988615, -19.778563 
1488856125.634870, 1488856125.634870, -1.068359, +0.088867, -0.473755, +0.026288, +9.988615, -19.778563 
1488856125.638806, 1488856125.638806, -1.068359, +0.088867, -0.473755, +4.588665, +10.537931, -15.857054 
1488856125.642751, 1488856125.642751, -1.068359, +0.088867, -0.473755, +4.588665, +10.537931, -15.857054 
1488856125.646703, 1488856125.646703, -1.068359, +0.088867, -0.473755, +4.588665, +10.537931, -15.857054 
1488856125.650643, 1488856125.650643, -1.132690, +0.049927, -0.409912, +5.977215, +9.469816, -13.491941 
1488856125.654594, 1488856125.654594, -1.132690, +0.049927, -0.409912, +5.977215, +9.469816, -13.491941 
1488856125.658534, 1488856125.658534, -1.132690, +0.049927, -0.409912, +5.977215, +9.469816, -13.491941 
1488856125.662471, 1488856125.662471, -1.132690, +0.049927, -0.409912, +6.831707, +6.891081, -12.515379 
1488856125.666239, 1488856125.666239, -1.132690, +0.049927, -0.409912, +6.831707, +6.891081, -12.515379 
1488856125.669974, 1488856125.669974, -1.094604, +0.120605, -0.449829, +6.831707, +6.891081, -12.790037 
1488856125.673792, 1488856125.673792, -1.094604, +0.120605, -0.449829, +7.365765, +3.854582, -12.790037 
1488856125.677733, 1488856125.677733, -1.094604, +0.120605, -0.449829, +7.365765, +3.854582, -12.790037 
1488856125.681670, 1488856125.681670, -1.094604, +0.120605, -0.449829, +8.159222, +2.298185, -12.088133 
1488856125.685630, 1488856125.685630, -1.094604, +0.120605, -0.449829, +8.159222, +2.298185, -12.088133 
1488856125.689574, 1488856125.689574, -1.062988, +0.140869, -0.543335, +8.159222, +2.298185, -12.088133 
1488856125.693649, 1488856125.693649, -1.062988, +0.140869, -0.543335, +9.730877, -0.387362, -12.347532 
1488856125.697715, 1488856125.697715, -1.062988, +0.140869, -0.543335, +9.730877, -0.387362, -12.347532 
1488856125.701663, 1488856125.701663, -1.062988, +0.140869, -0.543335, +9.730877, -0.387362, -12.347532 
1488856125.705613, 1488856125.705613, -1.062988, +0.140869, -0.543335, +13.133587, -4.491976, -13.064695 
1488856125.709555, 1488856125.709555, -1.030640, +0.133789, -0.573975, +13.133587, -4.491976, -13.064695 
1488856125.713489, 1488856125.713489, -1.030640, +0.133789, -0.573975, +13.133587, -4.491976, -13.263060 
1488856125.717236, 1488856125.717236, -1.030640, +0.133789, -0.573975, +17.787518, -8.093050, -13.263060 
1488856125.720982, 1488856125.720982, -1.030640, +0.133789, -0.573975, +17.787518, -8.093050, -13.263060 
1488856125.724736, 1488856125.724736, -1.030640, +0.133789, -0.573975, +17.787518, -11.099031, -13.385130 
1488856125.728477, 1488856125.728477, -1.036621, +0.070557, -0.522949, +21.785320, -11.099031, -13.385130 
1488856125.732228, 1488856125.732228, -1.036621, +0.070557, -0.522949, +21.785320, -11.099031, -13.385130 
1488856125.736002, 1488856125.736002, -1.036621, +0.070557, -0.522949, +26.347698, -14.120272, -14.254881 
1488856125.739755, 1488856125.739755, -1.036621, +0.070557, -0.522949, +26.347698, -14.120272, -14.254881 
1488856125.743608, 1488856125.743608, -1.036621, +0.070557, -0.522949, +26.347698, -14.120272, -14.254881 
1488856125.747361, 1488856125.747361, -1.074707, +0.126953, -0.477295, +29.536785, -16.790560, -15.139891 
1488856125.751120, 1488856125.751120, -1.074707, +0.126953, -0.477295, +29.536785, -16.790560, -15.139891 
1488856125.755055, 1488856125.755055, -1.074707, +0.126953, -0.477295, +29.536785, -16.790560, -15.139891 
1488856125.759002, 1488856125.759002, -1.074707, +0.126953, -0.477295, +31.566204, -18.911531, -15.017820 
1488856125.762951, 1488856125.762951, -1.074707, +0.126953, -0.477295, +31.566204, -18.911531, -15.017820 
1488856125.766737, 1488856125.766737, -1.074707, +0.108521, -0.376831, +31.566204, -18.911531, -15.017820 
1488856125.770487, 1488856125.770487, -1.057129, +0.108521, -0.376831, +32.146038, -20.315340, -15.963865 
1488856125.774328, 1488856125.774328, -1.057129, +0.108521, -0.376831, +32.146038, -20.315340, -15.963865 
1488856125.778275, 1488856125.778275, -1.057129, +0.108521, -0.376831, +32.146038, -20.315340, -15.963865 
1488856125.782221, 1488856125.782221, -1.057129, +0.108521, -0.376831, +30.971111, -21.169832, -17.169310 
1488856125.786025, 1488856125.786025, -1.057129, +0.108521, -0.352173, +30.971111, -21.169832, -17.169310 
1488856125.789781, 1488856125.789781, -1.055664, +0.152344, -0.352173, +30.971111, -21.169832, -18.130613 
1488856125.793666, 1488856125.793666, -1.055664, +0.152344, -0.352173, +28.255047, -21.444490, -18.130613 
1488856125.797427, 1488856125.797427, -1.055664, +0.152344, -0.352173, +28.255047, -21.444490, -18.130613 
1488856125.801172, 1488856125.801172, -1.055664, +0.152344, -0.352173, +24.348797, -20.910433, -18.893553 
1488856125.805048, 1488856125.805048, -1.055664, +0.152344, -0.352173, +25.416912, -20.910433, -18.893553 
1488856125.809037, 1488856125.809037, -1.054199, +0.093262, -0.350220, +25.416912, -20.910433, -18.893553 
1488856125.813443, 1488856125.813443, -1.054199, +0.093262, -0.350220, +23.128094, -19.460848, -20.343138 
1488856125.817198, 1488856125.817198, -1.054199, +0.093262, -0.350220, +23.128094, -19.460848, -20.343138 
1488856125.820947, 1488856125.820947, -1.054199, +0.093262, -0.350220, +23.128094, -19.460848, -20.343138 
1488856125.824795, 1488856125.824795, -1.054199, +0.093262, -0.350220, +20.991863, -19.506624, -21.121336 
1488856125.828740, 1488856125.828740, -1.057739, +0.060669, -0.348511, +20.991863, -19.506624, -21.121336 
1488856125.832682, 1488856125.832682, -1.057739, +0.060669, -0.348511, +20.991863, -19.506624, -21.121336 
1488856125.836631, 1488856125.836631, -1.057739, +0.060669, -0.348511, +19.343914, -19.888094, -21.182371 
1488856125.840687, 1488856125.840687, -1.057739, +0.060669, -0.348511, +19.343914, -19.888094, -21.182371 
1488856125.844605, 1488856125.844605, -1.057739, +0.060669, -0.348511, +19.343914, -19.598177, -20.327879 
1488856125.848362, 1488856125.848362, -1.038330, +0.039917, -0.368408, +19.099773, -19.598177, -20.327879 
1488856125.852114, 1488856125.852114, -1.038330, +0.039917, -0.368408, +19.099773, -19.598177, -20.327879 
1488856125.855868, 1488856125.855868, -1.038330, +0.039917, -0.368408, +19.786419, -18.865755, -19.442869 
1488856125.859621, 1488856125.859621, -1.038330, +0.039917, -0.368408, +19.786419, -18.865755, -19.442869 
1488856125.863462, 1488856125.863462, -1.038330, +0.039917, -0.368408, +19.786419, -18.865755, -19.442869 
1488856125.867229, 1488856125.867229, -1.064331, +0.043945, -0.350098, +20.961346, -18.255404, -18.786741 
1488856125.870988, 1488856125.870988, -1.064331, +0.043945, -0.350098, +20.961346, -18.255404, -18.786741 
1488856125.874855, 1488856125.874855, -1.064331, +0.043945, -0.350098, +20.961346, -18.255404, -18.786741 
1488856125.878799, 1488856125.878799, -1.064331, +0.043945, -0.350098, +20.244183, -17.538240, -18.069578 
1488856125.882751, 1488856125.882751, -1.064331, +0.043945, -0.350098, +20.244183, -17.538240, -18.069578 
1488856125.886708, 1488856125.886708, -1.069580, -0.020874, -0.325317, +20.244183, -17.538240, -18.069578 
1488856125.890655, 1488856125.890655, -1.069580, -0.020874, -0.325317, +19.343914, -17.553499, -17.398191 
1488856125.894607, 1488856125.894607, -1.069580, -0.020874, -0.325317, +19.343914, -17.553499, -17.398191 
1488856125.898546, 1488856125.898546, -1.069580, -0.020874, -0.325317, +19.343914, -17.553499, -16.619993 
1488856125.902488, 1488856125.902488, -1.069580, -0.020874, -0.325317, +19.679607, -17.248323, -16.619993 
1488856125.906269, 1488856125.906269, -1.062622, +0.014160, -0.364990, +19.679607, -17.248323, -16.619993 
1488856125.910023, 1488856125.910023, -1.062622, +0.014160, -0.364990, +19.679607, -17.110994, -15.597654 
1488856125.913784, 1488856125.913784, -1.062622, +0.014160, -0.364990, +18.535198, -17.110994, -15.597654 
1488856125.917527, 1488856125.917527, -1.062622, +0.014160, -0.364990, +18.535198, -17.110994, -15.597654 
1488856125.921279, 1488856125.921279, -1.062622, +0.014160, -0.364990, +17.955364, -16.073397, -14.956785 
1488856125.925139, 1488856125.925139, -1.062622, +0.014160, -0.352173, +17.955364, -16.073397, -14.956785 
1488856125.929112, 1488856125.929112, -1.115723, +0.006226, -0.352173, +17.955364, -16.073397, -14.956785 
1488856125.933649, 1488856125.933649, -1.115723, +0.006226, -0.352173, +17.711224, -16.058138, -14.849974 
1488856125.937599, 1488856125.937599, -1.115723, +0.006226, -0.352173, +17.711224, -16.058138, -14.849974 
1488856125.941541, 1488856125.941541, -1.115723, +0.006226, -0.352173, +17.711224, -16.058138, -14.849974 
1488856125.945500, 1488856125.945500, -1.115723, +0.011963, -0.352783, +17.161907, -16.622713, -14.224363 
1488856125.949445, 1488856125.949445, -1.076904, +0.011963, -0.352783, +17.161907, -16.622713, -14.224363 
1488856125.953392, 1488856125.953392, -1.076904, +0.011963, -0.352783, +17.161907, -16.195467, -13.614012 
1488856125.957330, 1488856125.957330, -1.076904, +0.011963, -0.352783, +16.780437, -16.195467, -13.614012 
1488856125.961277, 1488856125.961277, -1.076904, +0.011963, -0.352783, +16.780437, -16.195467, -13.614012 
1488856125.965114, 1488856125.965114, -1.076904, +0.011963, -0.347046, +16.688885, -16.164949, -14.025999 
1488856125.968861, 1488856125.968861, -1.105713, +0.017334, -0.347046, +16.688885, -16.164949, -14.025999 
1488856125.972612, 1488856125.972612, -1.105713, +0.017334, -0.347046, +16.688885, -16.164949, -14.025999 
1488856125.976381, 1488856125.976381, -1.105713, +0.017334, -0.347046, +15.910686, -16.958406, -14.499022 
1488856125.980547, 1488856125.980547, -1.105713, +0.017334, -0.347046, +15.910686, -16.958406, -14.499022 
1488856125.984384, 1488856125.984384, -1.105713, +0.017334, -0.347046, +15.910686, -16.958406, -14.499022 
1488856125.988131, 1488856125.988131, -1.118896, -0.005615, -0.369995, +14.247478, -17.355135, -15.170408 
1488856125.991976, 1488856125.991976, -1.118896, -0.005615, -0.369995, +14.247478, -17.355135, -15.170408 
1488856125.995770, 1488856125.995770, -1.118896, -0.005615, -0.369995, +14.247478, -17.355135, -15.170408 
1488856125.999524, 1488856125.999524, -1.118896, -0.005615, -0.369995, +14.354290, -18.438509, -15.841795 
1488856126.003302, 1488856126.003302, -1.118896, -0.005615, -0.369995, +14.354290, -18.438509, -15.841795 
1488856126.007051, 1488856126.007051, -1.092285, -0.032227, -0.338135, +14.354290, -18.438509, -15.841795 
1488856126.010796, 1488856126.010796, -1.092285, -0.032227, -0.338135, +15.559734, -19.811800, -16.436888 
1488856126.014607, 1488856126.014607, -1.092285, -0.032227, -0.338135, +15.559734, -19.811800, -16.436888 
1488856126.018344, 1488856126.018344, -1.092285, -0.032227, -0.338135, +15.559734, -19.811800, -17.184568 
1488856126.022088, 1488856126.022088, -1.092285, -0.032227, -0.338135, +16.246380, -20.513704, -17.184568 
1488856126.025934, 1488856126.025934, -1.071899, +0.090698, -0.416870, +16.246380, -20.513704, -17.184568 
1488856126.029682, 1488856126.029682, -1.071899, +0.090698, -0.416870, +16.246380, -20.254305, -17.321898 
1488856126.033577, 1488856126.033577, -1.071899, +0.090698, -0.416870, +14.827312, -20.254305, -17.321898 
1488856126.037314, 1488856126.037314, -1.071899, +0.090698, -0.416870, +14.827312, -20.254305, -17.321898 
1488856126.041056, 1488856126.041056, -1.071899, +0.090698, -0.416870, +13.606609, -21.337679, -18.420530 
1488856126.044837, 1488856126.044837, -1.134399, -0.102295, -0.301514, +13.606609, -21.337679, -18.420530 
1488856126.048579, 1488856126.048579, -1.148682, -0.102295, -0.301514, +13.606609, -21.337679, -18.420530 
1488856126.052321, 1488856126.052321, -1.148682, -0.102295, -0.301514, +14.445843, -23.153475, -19.854856 
1488856126.056224, 1488856126.056224, -1.148682, -0.102295, -0.301514, +14.445843, -23.153475, -19.854856 
1488856126.060153, 1488856126.060153, -1.148682, -0.102295, -0.301514, +14.445843, -23.153475, -19.854856 
1488856126.064040, 1488856126.064040, -1.148682, -0.102295, -0.386475, +15.910686, -25.503328, -21.090818 
1488856126.067789, 1488856126.067789, -1.085449, -0.012573, -0.386475, +15.910686, -25.503328, -21.090818 
1488856126.071541, 1488856126.071541, -1.085449, -0.012573, -0.386475, +15.910686, -25.503328, -21.090818 
1488856126.075561, 1488856126.075561, -1.085449, -0.012573, -0.386475, +17.909588, -27.471712, -21.975828 
1488856126.079509, 1488856126.079509, -1.085449, -0.012573, -0.386475, +17.909588, -27.471712, -21.975828 
1488856126.083478, 1488856126.083478, -1.085449, -0.012573, -0.386475, +17.909588, -27.471712, -23.059202 
1488856126.087430, 1488856126.087430, -1.108276, +0.005493, -0.414429, +18.550457, -28.478792, -23.059202 
1488856126.091572, 1488856126.091572, -1.108276, +0.005493, -0.414429, +18.550457, -28.478792, -23.059202 
1488856126.095920, 1488856126.095920, -1.108276, +0.005493, -0.414429, +18.809856, -29.577425, -24.310423 
1488856126.099863, 1488856126.099863, -1.108276, +0.005493, -0.414429, +18.809856, -29.577425, -24.310423 
1488856126.103818, 1488856126.103818, -1.108276, +0.005493, -0.376709, +18.809856, -29.577425, -24.310423 
1488856126.107765, 1488856126.107765, -1.138062, -0.046265, -0.376709, +18.886150, -30.828646, -24.539305 
1488856126.111712, 1488856126.111712, -1.138062, -0.046265, -0.376709, +18.886150, -30.828646, -24.539305 
1488856126.115579, 1488856126.115579, -1.138062, -0.046265, -0.376709, +18.886150, -30.828646, -24.539305 
1488856126.119327, 1488856126.119327, -1.138062, -0.046265, -0.376709, +20.946087, -31.484774, -24.569822 
1488856126.123081, 1488856126.123081, -1.138062, -0.046265, -0.376709, +20.946087, -31.484774, -24.569822 
1488856126.126823, 1488856126.126823, -1.173340, -0.141113, -0.272583, +20.946087, -31.484774, -24.569822 
1488856126.130580, 1488856126.130580, -1.173340, -0.141113, -0.272583, +23.814739, -32.858063, -25.653196 
1488856126.134339, 1488856126.134339, -1.173340, -0.141113, -0.272583, +23.814739, -32.858063, -25.653196 
1488856126.138199, 1488856126.138199, -1.173340, -0.141113, -0.272583, +23.814739, -32.858063, -26.660276 
1488856126.141960, 1488856126.141960, -1.173340, -0.141113, -0.272583, +25.386395, -34.917999, -26.660276 
1488856126.145885, 1488856126.145885, -1.125366, -0.027344, -0.311768, +25.386395, -34.917999, -26.660276 
1488856126.149642, 1488856126.149642, -1.125366, -0.027344, -0.311768, +25.386395, -35.864044, -27.697874 
1488856126.153412, 1488856126.153412, -1.125366, -0.027344, -0.311768, +25.004925, -35.864044, -27.697874 
1488856126.157169, 1488856126.157169, -1.125366, -0.027344, -0.311768, +25.004925, -35.864044, -27.697874 
1488856126.160915, 1488856126.160915, -1.125366, -0.027344, -0.311768, +23.112835, -36.596466, -28.384520 
1488856126.164774, 1488856126.164774, -1.169434, -0.099121, -0.274536, +23.112835, -36.596466, -28.384520 
1488856126.168725, 1488856126.168725, -1.169434, -0.099121, -0.274536, +23.112835, -36.596466, -28.384520 
1488856126.172682, 1488856126.172682, -1.169434, -0.099121, -0.274536, +21.541180, -37.847687, -29.071165 
1488856126.176640, 1488856126.176640, -1.169434, -0.099121, -0.274536, +21.541180, -37.847687, -29.071165 
1488856126.180585, 1488856126.180585, -1.169434, -0.099121, -0.274536, +21.541180, -37.847687, -29.071165 
1488856126.184549, 1488856126.184549, -1.158081, -0.085083, -0.265015, +22.212566, -38.702179, -28.781248 
1488856126.188497, 1488856126.188497, -1.158081, -0.085083, -0.265015, +22.212566, -38.702179, -28.781248 
1488856126.192448, 1488856126.192448, -1.158081, -0.085083, -0.265015, +22.212566, -38.702179, -28.109861 
1488856126.196308, 1488856126.196308, -1.158081, -0.085083, -0.265015, +23.601116, -39.205719, -28.109861 
1488856126.200064, 1488856126.200064, -1.158081, -0.085083, -0.265015, +23.601116, -39.205719, -28.109861 
1488856126.203877, 1488856126.203877, -1.180542, -0.132324, -0.193481, +23.601116, -39.358307, -28.338743 
1488856126.207623, 1488856126.207623, -1.180542, -0.132324, -0.193481, +24.776043, -39.358307, -28.338743 
1488856126.211616, 1488856126.211616, -1.180542, -0.132324, -0.193481, +24.776043, -39.358307, -28.338743 
1488856126.215917, 1488856126.215917, -1.180542, -0.132324, -0.193481, +24.226727, -40.746857, -29.223753 
1488856126.219867, 1488856126.219867, -1.180542, -0.132324, -0.193481, +24.226727, -40.746857, -29.223753 
1488856126.223820, 1488856126.223820, -1.121460, -0.042847, -0.247437, +24.226727, -40.746857, -29.223753 
1488856126.227769, 1488856126.227769, -1.121460, -0.042847, -0.247437, +22.014202, -42.684723, -29.681517 
1488856126.231714, 1488856126.231714, -1.121460, -0.042847, -0.247437, +22.014202, -42.684723, -29.681517 
1488856126.235705, 1488856126.235705, -1.121460, -0.042847, -0.247437, +22.014202, -42.684723, -29.681517 
1488856126.239653, 1488856126.239653, -1.121460, -0.042847, -0.247437, +19.053997, -43.981720, -30.703856 
1488856126.243573, 1488856126.243573, -1.255249, -0.083374, -0.286011, +19.053997, -43.981720, -30.703856 
1488856126.247328, 1488856126.247328, -1.255249, -0.083374, -0.286011, +19.053997, -47.887970, -32.458618 
1488856126.251080, 1488856126.251080, -1.255249, -0.083374, -0.286011, +15.727581, -45.629669, -32.458618 
1488856126.254838, 1488856126.254838, -1.255249, -0.083374, -0.286011, +15.727581, -45.629669, -32.458618 
1488856126.258596, 1488856126.258596, -1.255249, -0.083374, -0.286011, +13.042034, -47.002960, -33.664062 
1488856126.262346, 1488856126.262346, -1.255249, -0.083374, -0.332886, +13.042034, -47.002960, -33.664062 
1488856126.266273, 1488856126.266273, -1.248901, -0.076904, -0.332886, +13.042034, -47.002960, -33.664062 
1488856126.270022, 1488856126.270022, -1.248901, -0.076904, -0.332886, +12.553753, -48.162628, -34.640625 
1488856126.273828, 1488856126.273828, -1.248901, -0.076904, -0.332886, +12.553753, -48.162628, -34.640625 
1488856126.277779, 1488856126.277779, -1.248901, -0.076904, -0.332886, +12.553753, -48.162628, -34.640625 
1488856126.281724, 1488856126.281724, -1.248901, -0.076904, -0.332886, +11.607708, -50.451447, -37.326172 
1488856126.285813, 1488856126.285813, -1.324341, -0.083008, -0.311768, +11.607708, -50.451447, -37.326172 
1488856126.289760, 1488856126.289760, -1.324341, -0.083008, -0.311768, +11.607708, -50.451447, -37.326172 
1488856126.293700, 1488856126.293700, -1.324341, -0.083008, -0.311768, +11.378826, -52.877594, -40.454224 
1488856126.297452, 1488856126.297452, -1.324341, -0.083008, -0.311768, +11.378826, -52.877594, -40.454224 
1488856126.301210, 1488856126.301210, -1.324341, -0.083008, -0.311768, +11.378826, -52.877594, -44.360474 
1488856126.305124, 1488856126.305124, -1.329102, -0.108521, -0.270996, +11.760296, -54.418732, -43.429688 
1488856126.309076, 1488856126.309076, -1.329102, -0.108521, -0.270996, +11.760296, -54.418732, -43.429688 
1488856126.313034, 1488856126.313034, -1.329102, -0.108521, -0.270996, +14.003338, -56.371857, -46.603516 
1488856126.316990, 1488856126.316990, -1.329102, -0.108521, -0.270996, +14.003338, -56.371857, -46.603516 
1488856126.320949, 1488856126.320949, -1.329102, -0.108521, -0.270996, +14.003338, -56.371857, -46.603516 
1488856126.324907, 1488856126.324907, -1.307983, -0.070679, -0.230469, +16.536297, -58.263947, -49.807861 
1488856126.328855, 1488856126.328855, -1.307983, -0.070679, -0.230469, +16.536297, -58.263947, -49.807861 
1488856126.333282, 1488856126.333282, -1.307983, -0.070679, -0.230469, +16.536297, -58.263947, -49.807861 
1488856126.337243, 1488856126.337243, -1.307983, -0.070679, -0.230469, +19.588055, -60.384918, -53.164795 
1488856126.341194, 1488856126.341194, -1.307983, -0.070679, -0.230469, +19.588055, -60.384918, -53.164795 
1488856126.345048, 1488856126.345048, -1.255249, +0.035156, -0.247681, +19.588055, -60.384918, -56.125000 
1488856126.348802, 1488856126.348802, -1.255249, +0.035156, -0.247681, +24.379314, -62.414337, -56.125000 
1488856126.352567, 1488856126.352567, -1.255249, +0.035156, -0.247681, +24.379314, -62.414337, -56.125000 
1488856126.356543, 1488856126.356543, -1.255249, +0.035156, -0.247681, +30.513348, -64.367462, -59.451416 
1488856126.360482, 1488856126.360482, -1.255249, +0.035156, -0.247681, +30.513348, -64.367462, -59.451416 
1488856126.364409, 1488856126.364409, -1.306030, -0.061890, -0.229492, +30.513348, -64.367462, -59.451416 
1488856126.368158, 1488856126.368158, -1.306030, -0.061890, -0.229492, +35.899700, -65.710236, -63.327148 
1488856126.371916, 1488856126.371916, -1.306030, -0.061890, -0.229492, +35.899700, -65.710236, -63.327148 
1488856126.375678, 1488856126.375678, -1.306030, -0.061890, -0.229492, +35.899700, -65.710236, -63.327148 
1488856126.379425, 1488856126.379425, -1.306030, -0.061890, -0.229492, +41.163982, -66.976715, -66.684082 
1488856126.383362, 1488856126.383362, -1.318481, +0.033447, -0.295532, +41.163982, -66.976715, -66.684082 
1488856126.387107, 1488856126.387107, -1.318481, +0.033447, -0.295532, +41.163982, -66.976715, -66.684082 
1488856126.390869, 1488856126.390869, -1.318481, +0.033447, -0.295532, +44.673504, -69.067169, -68.621948 
1488856126.394752, 1488856126.394752, -1.318481, +0.033447, -0.295532, +44.673504, -69.067169, -68.621948 
1488856126.398504, 1488856126.398504, -1.318481, +0.033447, -0.295532, +44.673504, -69.067169, -68.621948 
1488856126.402255, 1488856126.402255, -1.318481, -0.020630, -0.277100, +46.870770, -70.776154, -69.583252 
1488856126.406150, 1488856126.406150, -1.313232, -0.020630, -0.277100, +46.870770, -70.776154, -69.583252 
1488856126.410082, 1488856126.410082, -1.313232, -0.020630, -0.277100, +46.870770, -70.776154, -69.583252 
1488856126.414003, 1488856126.414003, -1.313232, -0.020630, -0.277100, +47.267498, -72.118927, -70.971802 
1488856126.417930, 1488856126.417930, -1.313232, -0.020630, -0.277100, +47.267498, -72.118927, -70.971802 
1488856126.421849, 1488856126.421849, -1.313232, -0.142822, -0.303589, +44.841351, -72.225739, -72.314575 
1488856126.425755, 1488856126.425755, -1.281006, -0.142822, -0.303589, +44.841351, -72.225739, -72.314575 
1488856126.429649, 1488856126.429649, -1.281006, -0.142822, -0.303589, +44.841351, -72.225739, -72.314575 
1488856126.433688, 1488856126.433688, -1.281006, -0.142822, -0.303589, +40.324749, -70.760895, -73.779419 
1488856126.437458, 1488856126.437458, -1.281006, -0.142822, -0.303589, +40.324749, -70.760895, -73.779419 
1488856126.441212, 1488856126.441212, -1.281006, -0.142822, -0.330566, +40.324749, -70.760895, -73.779419 
1488856126.445062, 1488856126.445062, -1.142090, -0.299072, -0.330566, +36.265911, -67.236115, -74.755981 
1488856126.448809, 1488856126.448809, -1.142090, -0.299072, -0.330566, +36.265911, -67.236115, -74.755981 
1488856126.452716, 1488856126.452716, -1.142090, -0.299072, -0.330566, +36.265911, -67.236115, -74.755981 
1488856126.457103, 1488856126.457103, -1.142090, -0.299072, -0.330566, +34.190716, -62.322784, -75.274780 
1488856126.461050, 1488856126.461050, -1.142090, -0.299072, -0.313110, +34.190716, -62.322784, -75.274780 
1488856126.465127, 1488856126.465127, -0.999512, -0.464478, -0.313110, +34.190716, -54.800201, -72.909668 
1488856126.469077, 1488856126.469077, -0.999512, -0.464478, -0.313110, +33.687176, -54.800201, -72.909668 
1488856126.473044, 1488856126.473044, -0.999512, -0.464478, -0.313110, +33.687176, -54.800201, -72.909668 
1488856126.476986, 1488856126.476986, -0.999512, -0.464478, -0.313110, +38.539471, -45.385529, -63.815430 
1488856126.480937, 1488856126.480937, -0.999512, -0.464478, -0.401001, +38.539471, -45.385529, -63.815430 
1488856126.484809, 1488856126.484809, -0.747559, -0.227295, -0.401001, +38.539471, -45.385529, -63.815430 
1488856126.488561, 1488856126.488561, -0.747559, -0.227295, -0.401001, +51.799358, -35.406281, -43.689087 
1488856126.492322, 1488856126.492322, -0.747559, -0.227295, -0.401001, +51.799358, -35.406281, -43.689087 
1488856126.496078, 1488856126.496078, -0.747559, -0.227295, -0.401001, +51.799358, -35.406281, -43.689087 
1488856126.499835, 1488856126.499835, -0.747559, -0.227295, -0.401001, +61.320843, -24.877718, -21.823240 
1488856126.503646, 1488856126.503646, -0.533447, +0.213623, -0.300537, +61.320843, -24.877718, -21.823240 
1488856126.507410, 1488856126.507410, -0.533447, +0.213623, -0.300537, +61.320843, -24.877718, -21.823240 
1488856126.511161, 1488856126.511161, -0.533447, +0.213623, -0.300537, +68.233078, -17.629793, -2.459837 
1488856126.515028, 1488856126.515028, -0.533447, +0.213623, -0.300537, +68.233078, -17.629793, -2.459837 
1488856126.518980, 1488856126.518980, -0.533447, +0.213623, -0.300537, +68.233078, -17.629793, +17.071413 
1488856126.522924, 1488856126.522924, -0.466309, +0.286987, -0.134033, +69.377487, -11.556795, +15.270876 
1488856126.526921, 1488856126.526921, -0.466309, +0.286987, -0.134033, +69.377487, -11.556795, +15.270876 
1488856126.530867, 1488856126.530867, -0.466309, +0.286987, -0.134033, +62.175335, -3.561190, +30.255007 
1488856126.534822, 1488856126.534822, -0.466309, +0.286987, -0.134033, +62.175335, -3.561190, +30.255007 
1488856126.538763, 1488856126.538763, -0.466309, +0.286987, -0.134033, +62.175335, -3.561190, +30.255007 
1488856126.542706, 1488856126.542706, -0.534912, +0.176758, -0.082153, +52.348675, +7.119963, +44.171021 
1488856126.546509, 1488856126.546509, -0.534912, +0.176758, -0.082153, +52.348675, +7.119963, +44.171021 
1488856126.550264, 1488856126.550264, -0.534912, +0.176758, -0.082153, +52.348675, +7.119963, +44.171021 
1488856126.554115, 1488856126.554115, -0.534912, +0.176758, -0.082153, +42.537273, +18.304655, +57.583496 
1488856126.558064, 1488856126.558064, -0.534912, +0.176758, -0.082153, +42.537273, +18.304655, +57.583496 
1488856126.562018, 1488856126.562018, -0.576050, +0.229492, -0.067871, +42.537273, +18.304655, +57.583496 
1488856126.565980, 1488856126.565980, -0.576050, +0.229492, -0.067871, +29.292645, +30.298063, +69.805786 
1488856126.570126, 1488856126.570126, -0.576050, +0.229492, -0.067871, +29.292645, +30.298063, +69.805786 
1488856126.574469, 1488856126.574469, -0.576050, +0.229492, -0.067871, +11.638226, +42.306732, +79.800293 
1488856126.578420, 1488856126.578420, -0.576050, +0.229492, -0.067871, +11.638226, +42.306732, +79.800293 
1488856126.582377, 1488856126.582377, -0.645752, +0.243774, -0.047363, +11.638226, +42.306732, +79.800293 
1488856126.586451, 1488856126.586451, -0.645752, +0.243774, -0.047363, -8.060871, +55.093597, +86.773560 
1488856126.590408, 1488856126.590408, -0.645752, +0.243774, -0.047363, -8.060871, +55.093597, +86.773560 
1488856126.594310, 1488856126.594310, -0.645752, +0.243774, -0.047363, -8.060871, +55.093597, +86.773560 
1488856126.598062, 1488856126.598062, -0.645752, +0.243774, -0.047363, -25.440632, +65.255951, +91.488525 
1488856126.601815, 1488856126.601815, -0.778687, +0.188477, -0.077148, -25.440632, +65.255951, +91.488525 
1488856126.605610, 1488856126.605610, -0.778687, +0.188477, -0.077148, -25.440632, +65.255951, +91.488525 
1488856126.609371, 1488856126.609371, -0.778687, +0.188477, -0.077148, -36.472736, +71.222137, +96.752808 
1488856126.613124, 1488856126.613124, -0.778687, +0.188477, -0.077148, -36.472736, +71.222137, +96.752808 
1488856126.616887, 1488856126.616887, -0.778687, +0.188477, -0.077148, -36.472736, +71.222137, +96.752808 
1488856126.620636, 1488856126.620636, -0.934937, +0.051636, -0.042847, -42.179523, +74.487518, +102.932617 
1488856126.624542, 1488856126.624542, -0.927612, +0.051636, -0.042847, -42.179523, +74.487518, +102.932617 
1488856126.628289, 1488856126.628289, -0.927612, +0.051636, -0.042847, -42.179523, +74.487518, +110.165283 
1488856126.632045, 1488856126.632045, -0.927612, +0.051636, -0.042847, -44.681965, +76.806854, +110.165283 
1488856126.636042, 1488856126.636042, -0.927612, +0.051636, -0.042847, -44.681965, +76.806854, +110.165283 
1488856126.639987, 1488856126.639987, -0.927612, -0.042114, -0.091553, -45.597492, +79.202484, +118.664429 
1488856126.643917, 1488856126.643917, -1.044434, -0.037720, -0.091553, -45.597492, +79.202484, +118.664429 
1488856126.647671, 1488856126.647671, -1.044434, -0.037720, -0.091553, -45.597492, +79.202484, +118.664429 
1488856126.651420, 1488856126.651420, -1.044434, -0.037720, -0.091553, -45.673786, +81.765961, +127.178833 
1488856126.655326, 1488856126.655326, -1.044434, -0.037720, -0.091553, -45.673786, +81.765961, +127.178833 
1488856126.659276, 1488856126.659276, -1.044434, -0.037720, -0.122803, -45.673786, +81.765961, +127.178833 
1488856126.663274, 1488856126.663274, -1.094482, -0.020142, -0.100830, -43.995319, +84.436249, +133.343384 
1488856126.667210, 1488856126.667210, -1.094482, -0.020142, -0.100830, -43.995319, +84.436249, +133.343384 
1488856126.671160, 1488856126.671160, -1.094482, -0.020142, -0.100830, -43.995319, +84.436249, +133.343384 
1488856126.675128, 1488856126.675128, -1.094482, -0.020142, -0.100830, -44.590412, +86.847137, +136.547729 
1488856126.679083, 1488856126.679083, -1.094482, -0.020142, -0.069580, -44.590412, +86.847137, +136.547729 
1488856126.683038, 1488856126.683038, -1.176636, +0.011230, -0.072266, -48.496662, +90.097260, +138.256714 
1488856126.686990, 1488856126.686990, -1.176636, +0.011230, -0.072266, -49.244343, +90.097260, +138.256714 
1488856126.691142, 1488856126.691142, -1.176636, +0.011230, -0.072266, -49.244343, +90.097260, +138.256714 
1488856126.695178, 1488856126.695178, -1.176636, +0.011230, -0.072266, -56.354939, +91.684174, +139.233276 
1488856126.698932, 1488856126.698932, -1.176636, +0.011230, -0.072266, -56.354939, +91.684174, +139.233276 
1488856126.702685, 1488856126.702685, -1.327393, -0.083862, -0.064941, -56.354939, +91.684174, +139.233276 
1488856126.706636, 1488856126.706636, -1.327393, -0.083862, -0.064941, -62.458454, +93.026947, +139.797852 
1488856126.710584, 1488856126.710584, -1.327393, -0.083862, -0.064941, -62.458454, +93.026947, +139.797852 
1488856126.714544, 1488856126.714544, -1.327393, -0.083862, -0.064941, -62.458454, +93.026947, +139.797852 
1488856126.718500, 1488856126.718500, -1.327393, -0.083862, -0.064941, -67.142899, +92.813324, +139.904663 
1488856126.722441, 1488856126.722441, -1.404907, -0.088623, -0.129028, -67.142899, +92.813324, +139.904663 
1488856126.726245, 1488856126.726245, -1.404907, -0.088623, -0.129028, -67.142899, +92.813324, +139.568970 
1488856126.729998, 1488856126.729998, -1.404907, -0.088623, -0.129028, -71.476395, +91.058563, +139.568970 
1488856126.733865, 1488856126.733865, -1.404907, -0.088623, -0.129028, -71.476395, +91.058563, +139.568970 
1488856126.737619, 1488856126.737619, -1.404907, -0.088623, -0.129028, -75.382645, +88.876556, +139.034912 
1488856126.741382, 1488856126.741382, -1.427490, -0.195557, -0.168213, -74.558670, +88.876556, +139.034912 
1488856126.745311, 1488856126.745311, -1.427490, -0.195557, -0.168213, -74.558670, +88.876556, +139.034912 
1488856126.749069, 1488856126.749069, -1.427490, -0.195557, -0.168213, -74.619705, +86.419891, +138.760254 
1488856126.752828, 1488856126.752828, -1.427490, -0.195557, -0.168213, -74.619705, +86.419891, +138.760254 
1488856126.756849, 1488856126.756849, -1.427490, -0.195557, -0.168213, -74.619705, +86.419891, +138.760254 
1488856126.760777, 1488856126.760777, -1.479980, -0.291748, -0.187744, -70.362503, +83.810638, +140.057251 
1488856126.764713, 1488856126.764713, -1.479980, -0.291748, -0.187744, -70.362503, +83.810638, +140.057251 
1488856126.768643, 1488856126.768643, -1.479980, -0.291748, -0.187744, -70.362503, +83.810638, +140.057251 
