Calculating the offsets...
timestamp_before, timestamp_after, accel_x, accel_y, accel_z, gyro_x, gyro_y, gyro_z
1488856280.415817, 1488856280.415817, -1.248413, +0.049194, -0.301636, +18.782364, -32.343800, -40.692322 
1488856280.427814, 1488856280.427814, -1.248413, +0.049194, -0.301636, +20.033585, -37.821705, -45.971863 
1488856280.431571, 1488856280.431571, -1.248413, +0.049194, -0.301514, +20.033585, -37.821705, -45.971863 
1488856280.435624, 1488856280.435624, -1.239014, +0.158569, -0.301514, +20.033585, -37.821705, -45.971863 
1488856280.439777, 1488856280.439777, -1.239014, +0.158569, -0.301514, +19.362198, -42.292530, -54.059021 
1488856280.443722, 1488856280.443722, -1.239014, +0.158569, -0.301514, +19.362198, -42.292530, -54.059021 
1488856280.447650, 1488856280.447650, -1.239014, +0.158569, -0.301514, +19.362198, -42.292530, -64.511292 
1488856280.451576, 1488856280.451576, -1.239014, +0.221069, -0.423340, +14.860855, -49.052174, -64.511292 
1488856280.455512, 1488856280.455512, -1.278931, +0.248535, -0.423340, +14.860855, -49.052174, -64.511292 
1488856280.459558, 1488856280.459558, -1.278931, +0.248535, -0.423340, +8.986221, -54.942066, -72.934143 
1488856280.463509, 1488856280.463509, -1.278931, +0.248535, -0.423340, +8.986221, -54.942066, -72.934143 
1488856280.467632, 1488856280.467632, -1.278931, +0.248535, -0.423340, +8.986221, -54.942066, -72.934143 
1488856280.471594, 1488856280.471594, -1.278931, +0.004883, -0.471191, +8.253799, -59.595997, -80.471985 
1488856280.475441, 1488856280.475441, -1.475708, +0.004883, -0.471191, +8.253799, -59.595997, -80.471985 
1488856280.479192, 1488856280.479192, -1.475708, +0.004883, -0.471191, +8.253799, -59.595997, -80.471985 
1488856280.482943, 1488856280.482943, -1.475708, +0.004883, -0.471191, +14.494644, -65.455368, -85.293762 
1488856280.486941, 1488856280.486941, -1.475708, +0.004883, -0.471191, +14.494644, -65.455368, -85.293762 
1488856280.490887, 1488856280.490887, -1.475708, +0.004883, -0.502441, +14.494644, -65.455368, -89.200012 
1488856280.494885, 1488856280.494885, -1.616577, -0.014038, -0.505737, +19.591080, -71.619919, -89.886658 
1488856280.498835, 1488856280.498835, -1.616577, -0.014038, -0.505737, +19.591080, -71.619919, -89.886658 
1488856280.502785, 1488856280.502785, -1.616577, -0.014038, -0.505737, +23.497330, -78.577927, -94.464294 
1488856280.506559, 1488856280.506559, -1.616577, -0.014038, -0.505737, +24.534927, -78.577927, -94.464294 
1488856280.510305, 1488856280.510305, -1.616577, -0.014038, -0.505737, +24.534927, -78.577927, -94.464294 
1488856280.514186, 1488856280.514186, -1.665527, -0.023926, -0.703979, +30.195938, -83.521774, -99.057190 
1488856280.517940, 1488856280.517940, -1.665527, -0.023926, -0.703979, +30.195938, -83.521774, -99.057190 
1488856280.521692, 1488856280.521692, -1.665527, -0.023926, -0.703979, +30.195938, -83.521774, -99.057190 
1488856280.525633, 1488856280.525633, -1.665527, -0.023926, -0.703979, +38.237320, -87.000778, -104.168884 
1488856280.529559, 1488856280.529559, -1.665527, -0.023926, -0.703979, +38.237320, -87.000778, -104.168884 
1488856280.533498, 1488856280.533498, -1.747192, +0.125488, -0.664673, +38.237320, -87.000778, -104.168884 
1488856280.537419, 1488856280.537419, -1.747192, +0.125488, -0.664673, +51.008926, -90.067795, -106.823914 
1488856280.541343, 1488856280.541343, -1.747192, +0.125488, -0.664673, +51.008926, -90.067795, -106.823914 
1488856280.545278, 1488856280.545278, -1.747192, +0.125488, -0.664673, +51.008926, -90.067795, -110.730164 
1488856280.549201, 1488856280.549201, -1.747192, +0.125488, -0.664673, +61.217056, -93.119553, -107.617371 
1488856280.553131, 1488856280.553131, -2.028320, +0.168457, -0.759521, +61.217056, -93.119553, -107.617371 
1488856280.557015, 1488856280.557015, -2.028320, +0.168457, -0.759521, +61.217056, -96.781662, -115.735046 
1488856280.561032, 1488856280.561032, -2.028320, +0.168457, -0.759521, +62.773453, -96.781662, -115.735046 
1488856280.564979, 1488856280.564979, -2.028320, +0.168457, -0.759521, +62.773453, -96.781662, -115.735046 
1488856280.568905, 1488856280.568905, -2.028320, +0.168457, -0.759521, +65.962540, -97.788742, -123.715393 
1488856280.573015, 1488856280.573015, -1.977905, +0.955566, -1.329956, +65.962540, -97.788742, -123.715393 
1488856280.576964, 1488856280.576964, -1.977905, +0.955566, -1.329956, +65.962540, -97.788742, -123.715393 
1488856280.581058, 1488856280.581058, -1.977905, +0.955566, -1.329956, +75.209366, -97.330978, -126.370422 
1488856280.585010, 1488856280.585010, -1.977905, +0.955566, -1.329956, +75.209366, -97.330978, -126.370422 
1488856280.588952, 1488856280.588952, -1.977905, +0.955566, -1.329956, +75.209366, -97.330978, -122.464172 
1488856280.592894, 1488856280.592894, -2.025879, +0.549561, -1.022827, +98.219620, -95.408371, -121.075623 
1488856280.596848, 1488856280.596848, -2.025879, +0.549561, -1.022827, +98.219620, -95.408371, -121.075623 
1488856280.600787, 1488856280.600787, -2.025879, +0.549561, -1.022827, +124.617325, -97.422531, -112.469666 
1488856280.604744, 1488856280.604744, -2.025879, +0.549561, -1.022827, +124.617325, -97.422531, -112.469666 
1488856280.608682, 1488856280.608682, -2.025879, +0.549561, -1.022827, +124.617325, -97.422531, -112.469666 
1488856280.612616, 1488856280.612616, -1.847778, +0.378418, -1.009766, +152.785049, -101.481369, -99.804871 
1488856280.616403, 1488856280.616403, -1.847778, +0.378418, -1.009766, +152.785049, -101.481369, -99.804871 
1488856280.620151, 1488856280.620151, -1.847778, +0.378418, -1.009766, +152.785049, -101.481369, -99.804871 
1488856280.623993, 1488856280.623993, -1.847778, +0.378418, -1.009766, +157.912003, -106.287888, -85.217468 
1488856280.627737, 1488856280.627737, -1.847778, +0.378418, -1.009766, +157.912003, -106.287888, -85.217468 
1488856280.631482, 1488856280.631482, -1.514526, +0.355347, -0.719727, +157.912003, -106.287888, -85.217468 
1488856280.635509, 1488856280.635509, -1.514526, +0.355347, -0.719727, +138.960587, -110.209396, -76.992981 
1488856280.639435, 1488856280.639435, -1.514526, +0.355347, -0.719727, +138.960587, -110.209396, -76.992981 
1488856280.643371, 1488856280.643371, -1.514526, +0.355347, -0.719727, +138.960587, -110.209396, -76.992981 
1488856280.647302, 1488856280.647302, -1.514526, +0.355347, -0.719727, +89.659439, -108.744553, -79.312317 
1488856280.651229, 1488856280.651229, -1.061401, +0.375000, -0.614990, +89.659439, -108.744553, -79.312317 
1488856280.655138, 1488856280.655138, -1.061401, +0.375000, -0.614990, +27.159439, -100.718430, -85.476868 
1488856280.659106, 1488856280.659106, -1.061401, +0.375000, -0.614990, +28.212296, -100.718430, -85.476868 
1488856280.663073, 1488856280.663073, -1.061401, +0.375000, -0.614990, +28.212296, -100.718430, -85.476868 
1488856280.666821, 1488856280.666821, -1.061401, +0.375000, -0.614990, -26.932968, -75.648239, -92.312805 
1488856280.670564, 1488856280.670564, -0.642822, -0.659668, -0.246826, -26.932968, -75.648239, -92.312805 
1488856280.674535, 1488856280.674535, -0.642822, -0.659668, -0.246826, -26.932968, -75.648239, -92.312805 
1488856280.678279, 1488856280.678279, -0.642822, -0.659668, -0.246826, -37.614120, -28.300220, -80.548279 
1488856280.682031, 1488856280.682031, -0.642822, -0.659668, -0.246826, -37.614120, -28.300220, -80.548279 
1488856280.686018, 1488856280.686018, -0.642822, -0.659668, -0.246826, -37.614120, -28.300220, -80.548279 
1488856280.690031, 1488856280.690031, -0.642822, -0.448486, -0.216797, +10.466324, -3.184253, -44.003479 
1488856280.694303, 1488856280.694303, -0.882935, -0.448486, -0.216797, +10.466324, -3.184253, -44.003479 
1488856280.698239, 1488856280.698239, -0.882935, -0.448486, -0.216797, +10.466324, -7.090503, -6.176940 
1488856280.702176, 1488856280.702176, -0.882935, -0.448486, -0.216797, +55.418716, -6.388598, -6.176940 
1488856280.706130, 1488856280.706130, -0.882935, -0.448486, -0.216797, +55.418716, -6.388598, -6.176940 
1488856280.710072, 1488856280.710072, -0.164185, +0.649414, -0.388672, +64.909683, -5.396777, +21.197327 
1488856280.713975, 1488856280.713975, -0.183228, +0.649414, -0.388672, +64.909683, -5.396777, +21.197327 
1488856280.717719, 1488856280.717719, -0.183228, +0.649414, -0.388672, +64.909683, -5.396777, +21.197327 
1488856280.721575, 1488856280.721575, -0.183228, +0.649414, -0.388672, +46.950089, +3.132886, +41.827209 
1488856280.725376, 1488856280.725376, -0.183228, +0.649414, -0.388672, +46.950089, +3.132886, +41.827209 
1488856280.729125, 1488856280.729125, -0.183228, +0.649414, -0.013672, +46.950089, +3.132886, +41.827209 
1488856280.732873, 1488856280.732873, +0.184204, +0.988525, -0.014893, +7.323013, +22.389477, +55.193909 
1488856280.736621, 1488856280.736621, +0.184204, +0.988525, -0.014893, +7.323013, +22.389477, +55.193909 
1488856280.740364, 1488856280.740364, +0.184204, +0.988525, -0.014893, +7.323013, +22.389477, +55.193909 
1488856280.744253, 1488856280.744253, +0.184204, +0.988525, -0.014893, -42.313828, +49.443310, +65.218933 
1488856280.748003, 1488856280.748003, +0.184204, +0.988525, -0.014893, -42.313828, +49.443310, +65.218933 
1488856280.751750, 1488856280.751750, -0.055298, +0.289062, -0.180542, -42.313828, +49.443310, +65.218933 
1488856280.755536, 1488856280.755536, -0.055298, +0.289062, -0.180542, -74.586166, +73.399612, +73.122986 
1488856280.759287, 1488856280.759287, -0.055298, +0.289062, -0.180542, -74.586166, +73.399612, +73.122986 
1488856280.763025, 1488856280.763025, -0.055298, +0.289062, -0.180542, -74.586166, +73.399612, +73.122986 
1488856280.766971, 1488856280.766971, -0.055298, +0.289062, -0.180542, -86.869492, +95.097610, +84.536560 
1488856280.770917, 1488856280.770917, -0.357910, -0.037598, -0.176880, -86.869492, +95.097610, +84.536560 
1488856280.774903, 1488856280.774903, -0.357910, -0.037598, -0.176880, -86.869492, +111.424515, +99.749573 
1488856280.778846, 1488856280.778846, -0.357910, -0.037598, -0.176880, -87.235703, +111.424515, +99.749573 
1488856280.782791, 1488856280.782791, -0.357910, -0.037598, -0.176880, -87.235703, +111.424515, +99.749573 
1488856280.786561, 1488856280.786561, -0.357910, -0.037598, -0.176880, -79.667343, +121.144363, +118.075378 
1488856280.790312, 1488856280.790312, -0.574463, +0.022217, -0.092285, -79.667343, +121.144363, +118.075378 
1488856280.794088, 1488856280.794088, -0.574463, +0.022217, -0.092285, -79.667343, +121.144363, +118.075378 
1488856280.797838, 1488856280.797838, -0.574463, +0.022217, -0.092285, -71.290268, +124.623367, +138.232239 
1488856280.801585, 1488856280.801585, -0.574463, +0.022217, -0.092285, -71.290268, +124.623367, +138.232239 
1488856280.805508, 1488856280.805508, -0.574463, +0.022217, -0.092285, -71.290268, +124.623367, +138.232239 
1488856280.809703, 1488856280.809703, -0.534546, +0.212646, -0.141235, -64.469589, +126.149246, +157.809265 
1488856280.814064, 1488856280.814064, -0.534546, +0.212646, -0.141235, -64.469589, +126.149246, +157.809265 
1488856280.818007, 1488856280.818007, -0.534546, +0.212646, -0.141235, -64.469589, +126.149246, +175.219543 
1488856280.821953, 1488856280.821953, -0.534546, +0.212646, -0.141235, -60.136093, +130.971024, +175.219543 
1488856280.825907, 1488856280.825907, -0.534546, +0.212646, -0.141235, -60.136093, +130.971024, +175.219543 
1488856280.829849, 1488856280.829849, -0.560181, +0.422852, -0.167603, -60.166611, +138.112137, +191.927917 
1488856280.833802, 1488856280.833802, -0.560181, +0.422852, -0.167603, -60.166611, +138.112137, +191.927917 
1488856280.837746, 1488856280.837746, -0.560181, +0.422852, -0.167603, -60.166611, +138.112137, +191.927917 
1488856280.841685, 1488856280.841685, -0.560181, +0.422852, -0.167603, -57.526840, +146.809647, +205.645569 
1488856280.845506, 1488856280.845506, -0.560181, +0.422852, -0.167603, -57.526840, +146.809647, +205.645569 
1488856280.849254, 1488856280.849254, -0.744629, +0.526611, -0.289062, -57.526840, +146.809647, +205.645569 
1488856280.853029, 1488856280.853029, -0.744629, +0.526611, -0.289062, -59.357895, +155.415604, +215.212830 
1488856280.856774, 1488856280.856774, -0.744629, +0.526611, -0.289062, -59.357895, +155.415604, +215.212830 
1488856280.860520, 1488856280.860520, -0.744629, +0.526611, -0.289062, -59.357895, +155.415604, +215.212830 
1488856280.864357, 1488856280.864357, -0.744629, +0.526611, -0.289062, -73.533310, +164.067337, +223.589905 
1488856280.868213, 1488856280.868213, -0.744629, +0.526611, -0.188232, -73.533310, +164.067337, +223.589905 
1488856280.871965, 1488856280.871965, -1.071899, +0.477661, -0.188232, -73.533310, +164.067337, +231.402405 
1488856280.876011, 1488856280.876011, -1.071899, +0.477661, -0.188232, -92.530502, +172.642776, +229.983337 
1488856280.879930, 1488856280.879930, -1.071899, +0.477661, -0.188232, -92.530502, +172.642776, +229.983337 
1488856280.883830, 1488856280.883830, -1.071899, +0.477661, -0.188232, -104.249252, +178.883621, +236.636169 
1488856280.887575, 1488856280.887575, -1.071899, +0.477661, -0.188232, -107.072128, +178.883621, +236.636169 
1488856280.891718, 1488856280.891718, -1.399658, +0.215698, -0.275757, -107.072128, +178.883621, +236.636169 
1488856280.895552, 1488856280.895552, -1.399658, +0.215698, -0.275757, -108.582748, +178.242752, +245.577820 
1488856280.899300, 1488856280.899300, -1.399658, +0.215698, -0.275757, -108.582748, +178.242752, +245.577820 
1488856280.903027, 1488856280.903027, -1.399658, +0.215698, -0.275757, -108.582748, +178.242752, +245.577820 
1488856280.906782, 1488856280.906782, -1.399658, +0.215698, -0.275757, -99.656357, +173.100540, +258.700378 
1488856280.910530, 1488856280.910530, -1.737915, +0.273438, -0.323853, -99.656357, +173.100540, +258.700378 
1488856280.914281, 1488856280.914281, -1.737915, +0.273438, -0.323853, -99.656357, +173.100540, +258.700378 
1488856280.918036, 1488856280.918036, -1.737915, +0.273438, -0.323853, -95.765366, +166.920731, +275.134094 
1488856280.921780, 1488856280.921780, -1.737915, +0.273438, -0.323853, -95.765366, +166.920731, +275.134094 
1488856280.925583, 1488856280.925583, -1.737915, +0.273438, -0.323853, -95.765366, +166.920731, +275.134094 
1488856280.929324, 1488856280.929324, -2.065918, +0.213135, -0.369629, -108.750595, +167.439529, +288.805969 
1488856280.933141, 1488856280.933141, -2.065918, +0.213135, -0.369629, -108.750595, +167.439529, +288.805969 
1488856280.936888, 1488856280.936888, -2.065918, +0.213135, -0.369629, -108.750595, +167.439529, +288.805969 
1488856280.940624, 1488856280.940624, -2.065918, +0.213135, -0.369629, -132.142319, +172.215530, +294.375427 
1488856280.944529, 1488856280.944529, -2.065918, +0.213135, -0.369629, -132.142319, +172.215530, +294.375427 
1488856280.948268, 1488856280.948268, -2.378418, -0.067627, -0.587891, -132.142319, +172.215530, +294.375427 
1488856280.952012, 1488856280.952012, -2.390503, -0.067627, -0.587891, -145.585312, +175.877640, +291.689880 
1488856280.955797, 1488856280.955797, -2.390503, -0.067627, -0.587891, -145.585312, +175.877640, +291.689880 
1488856280.959548, 1488856280.959548, -2.390503, -0.067627, -0.587891, -145.585312, +175.877640, +279.635437 
1488856280.963326, 1488856280.963326, -2.390503, -0.067627, -0.587891, -156.586899, +174.855301, +279.635437 
1488856280.967246, 1488856280.967246, -2.390503, -0.067627, -0.556641, -156.586899, +174.855301, +279.635437 
1488856280.971173, 1488856280.971173, -2.950562, -0.616699, -0.556519, -163.621201, +168.553421, +259.036072 
1488856280.975105, 1488856280.975105, -2.950562, -0.616699, -0.556519, -163.621201, +168.553421, +259.036072 
1488856280.979037, 1488856280.979037, -2.950562, -0.616699, -0.556519, -163.621201, +168.553421, +259.036072 
1488856280.982997, 1488856280.982997, -2.950562, -0.616699, -0.556519, -155.625595, +153.935501, +234.469421 
1488856280.986944, 1488856280.986944, -2.950562, -0.616699, -0.556519, -155.625595, +153.935501, +234.469421 
1488856280.990891, 1488856280.990891, -2.606445, -1.204224, -0.515137, -155.625595, +153.935501, +234.469421 
1488856280.994887, 1488856280.994887, -2.606445, -1.204224, -0.515137, -134.339584, +129.628250, +209.063538 
1488856280.998831, 1488856280.998831, -2.606445, -1.204224, -0.515137, -134.339584, +129.628250, +209.063538 
1488856281.003260, 1488856281.003260, -2.606445, -1.204224, -0.515137, -134.339584, +114.003250, +170.641907 
1488856281.007215, 1488856281.007215, -2.606445, -1.204224, +0.101807, -98.038925, +112.782547, +170.641907 
1488856281.011271, 1488856281.011271, -2.177612, -2.430420, +0.101807, -98.038925, +112.782547, +170.641907 
1488856281.015233, 1488856281.015233, -2.177612, -2.430420, +0.101807, -89.066757, +93.434402, +110.705383 
1488856281.019183, 1488856281.019183, -2.177612, -2.430420, +0.101807, -89.066757, +93.434402, +110.705383 
1488856281.023134, 1488856281.023134, -2.177612, -2.430420, +0.101807, -89.066757, +93.434402, +110.705383 
1488856281.026883, 1488856281.026883, -2.177612, -2.430420, +0.726807, -61.478867, +63.603466, +41.872986 
1488856281.030635, 1488856281.030635, -2.141357, -2.207642, +0.731201, -61.478867, +63.603466, +41.872986 
1488856281.034454, 1488856281.034454, -2.141357, -2.207642, +0.731201, -61.478867, +63.603466, +41.872986 
1488856281.038200, 1488856281.038200, -2.141357, -2.207642, +0.731201, -46.525253, +18.895214, -29.004089 
1488856281.041951, 1488856281.041951, -2.141357, -2.207642, +0.731201, -46.525253, +18.895214, -29.004089 
1488856281.045755, 1488856281.045755, -2.141357, -2.207642, +0.731201, -46.525253, +18.895214, -29.004089 
1488856281.049503, 1488856281.049503, -2.005371, -1.578125, +0.398560, -55.939926, -23.402149, -93.686096 
1488856281.053408, 1488856281.053408, -2.005371, -1.578125, +0.398560, -55.939926, -23.402149, -93.686096 
1488856281.057157, 1488856281.057157, -2.005371, -1.578125, +0.398560, -55.939926, -23.402149, -93.686096 
1488856281.060909, 1488856281.060909, -2.005371, -1.578125, +0.398560, -68.650497, -51.997120, -150.677673 
1488856281.064830, 1488856281.064830, -2.005371, -1.578125, +0.398560, -68.650497, -51.997120, -150.677673 
1488856281.068780, 1488856281.068780, -2.024780, -1.350220, -0.037109, -68.650497, -70.017746, -194.088928 
1488856281.072725, 1488856281.072725, -2.024780, -1.350220, -0.037109, -63.035263, -70.017746, -194.088928 
1488856281.076530, 1488856281.076530, -2.024780, -1.350220, -0.037109, -63.035263, -70.017746, -194.088928 
1488856281.080284, 1488856281.080284, -2.024780, -1.350220, -0.037109, -50.492538, -69.575241, -193.844788 
1488856281.084125, 1488856281.084125, -2.024780, -1.350220, -0.037109, -50.492538, -69.575241, -193.844788 
1488856281.088076, 1488856281.088076, -0.765869, +3.578491, -1.838013, -50.492538, -69.575241, -193.844788 
1488856281.092018, 1488856281.092018, -0.765869, +3.578491, -1.838013, -85.435165, -71.024826, -145.047180 
1488856281.095981, 1488856281.095981, -0.765869, +3.578491, -1.838013, -85.435165, -71.024826, -145.047180 
1488856281.099926, 1488856281.099926, -0.765869, +3.578491, -1.838013, -85.435165, -71.024826, -145.047180 
1488856281.103889, 1488856281.103889, -0.765869, +3.578491, -1.838013, +93.367325, -50.730640, -39.242737 
1488856281.107830, 1488856281.107830, -1.828857, +0.658691, +0.849365, +93.367325, -50.730640, -39.242737 
1488856281.111775, 1488856281.111775, -1.828857, +0.658691, +0.849365, +93.367325, -50.730640, -24.502747 
1488856281.115738, 1488856281.115738, -1.828857, +0.658691, +0.849365, +206.084000, -19.999439, -24.502747 
1488856281.119906, 1488856281.119906, -1.828857, +0.658691, +0.849365, +206.084000, -19.999439, -24.502747 
1488856281.124249, 1488856281.124249, -1.828857, +0.658691, +0.849365, +12.419449, -52.576954, -119.275085 
1488856281.127992, 1488856281.127992, -2.441528, -0.745361, +0.273315, +12.419449, -52.576954, -119.275085 
1488856281.131748, 1488856281.131748, -2.441528, -0.745361, +0.273315, +12.419449, -52.576954, -119.275085 
1488856281.135636, 1488856281.135636, -2.441528, -0.745361, +0.273315, -84.214462, -49.784595, -172.238342 
1488856281.139578, 1488856281.139578, -2.441528, -0.745361, +0.273315, -84.214462, -49.784595, -172.238342 
1488856281.143541, 1488856281.143541, -2.441528, -0.745361, +0.273315, -84.214462, -49.784595, -172.238342 
1488856281.147485, 1488856281.147485, -0.969971, -0.197510, -1.040283, -106.812729, -25.813038, -177.838318 
1488856281.151437, 1488856281.151437, -0.969971, -0.197510, -1.040283, -106.812729, -25.813038, -177.838318 
1488856281.155277, 1488856281.155277, -0.969971, -0.197510, -1.040283, -106.812729, -25.813038, -162.213318 
1488856281.159138, 1488856281.159138, -0.969971, -0.197510, -1.040283, -73.075546, +0.996655, -162.396423 
1488856281.162890, 1488856281.162890, -0.969971, -0.197510, -1.040283, -73.075546, +0.996655, -162.396423 
1488856281.166645, 1488856281.166645, -1.469971, -1.047241, -0.152954, -73.075546, +8.809155, -152.371399 
1488856281.170398, 1488856281.170398, -1.495728, -1.047241, -0.152954, -35.401596, +8.473462, -152.371399 
1488856281.174184, 1488856281.174184, -1.495728, -1.047241, -0.152954, -35.401596, +8.473462, -152.371399 
1488856281.177934, 1488856281.177934, -1.495728, -1.047241, -0.152954, +3.660904, -14.613086, -143.231384 
1488856281.181679, 1488856281.181679, -1.495728, -1.047241, -0.152954, +2.989517, -14.613086, -143.231384 
1488856281.185639, 1488856281.185639, -1.495728, -1.047241, -0.777954, +2.989517, -14.613086, -143.231384 
1488856281.189553, 1488856281.189553, -0.848633, -0.349243, -0.764282, +46.873795, -32.465870, -119.351379 
1488856281.193495, 1488856281.193495, -0.848633, -0.349243, -0.764282, +46.873795, -32.465870, -119.351379 
1488856281.197410, 1488856281.197410, -0.848633, -0.349243, -0.764282, +46.873795, -32.465870, -119.351379 
1488856281.201331, 1488856281.201331, -0.848633, -0.349243, -0.764282, +81.450211, -39.149220, -91.107361 
1488856281.205302, 1488856281.205302, -0.848633, -0.349243, -0.764282, +81.450211, -39.149220, -91.107361 
1488856281.209221, 1488856281.209221, -0.824585, -0.359985, -0.437622, +81.450211, -39.149220, -91.107361 
1488856281.213142, 1488856281.213142, -0.824585, -0.359985, -0.437622, +86.348282, -32.053883, -66.021912 
1488856281.217057, 1488856281.217057, -0.824585, -0.359985, -0.437622, +86.348282, -32.053883, -66.021912 
1488856281.220977, 1488856281.220977, -0.824585, -0.359985, -0.437622, +86.348282, -32.053883, -51.388733 
1488856281.224915, 1488856281.224915, -0.824585, -0.359985, -0.437622, +81.785904, -31.428272, -51.388733 
1488856281.228832, 1488856281.228832, -1.490723, +0.216797, -0.189819, +81.785904, -31.428272, -51.388733 
1488856281.232757, 1488856281.232757, -1.490723, +0.216797, -0.189819, +66.633926, -35.075123, -49.847595 
1488856281.236706, 1488856281.236706, -1.490723, +0.216797, -0.189819, +66.633926, -35.075123, -49.847595 
1488856281.240848, 1488856281.240848, -1.490723, +0.216797, -0.189819, +66.633926, -35.075123, -49.847595 
1488856281.245196, 1488856281.245196, -1.490723, +0.216797, -0.283569, +30.821548, -34.098560, -54.150574 
1488856281.249148, 1488856281.249148, -1.207886, +0.227539, -0.300171, +30.821548, -34.098560, -54.150574 
1488856281.253105, 1488856281.253105, -1.207886, +0.227539, -0.300171, +30.821548, -34.098560, -58.056824 
1488856281.257050, 1488856281.257050, -1.207886, +0.227539, -0.300171, +3.569351, -29.093678, -57.324402 
1488856281.261002, 1488856281.261002, -1.207886, +0.227539, -0.300171, +3.569351, -29.093678, -57.324402 
1488856281.264959, 1488856281.264959, -1.207886, +0.227539, -0.268921, -8.149399, -23.066456, -56.973450 
1488856281.268910, 1488856281.268910, -1.106079, +0.089355, -0.259277, -6.043686, -23.066456, -56.973450 
1488856281.272858, 1488856281.272858, -1.106079, +0.089355, -0.259277, -6.043686, -23.066456, -56.973450 
1488856281.276635, 1488856281.276635, -1.106079, +0.089355, -0.259277, -7.645859, -17.817432, -48.962585 
1488856281.280378, 1488856281.280378, -1.106079, +0.089355, -0.259277, -7.645859, -17.817432, -48.962585 
1488856281.284136, 1488856281.284136, -1.106079, +0.089355, -0.259277, -7.645859, -17.817432, -48.962585 
1488856281.287887, 1488856281.287887, -1.219727, -0.307861, -0.237671, +1.936661, -17.512257, -39.456360 
1488856281.291630, 1488856281.291630, -1.219727, -0.307861, -0.237671, +1.936661, -17.512257, -39.456360 
1488856281.295541, 1488856281.295541, -1.219727, -0.307861, -0.237671, +1.936661, -17.512257, -39.456360 
1488856281.299287, 1488856281.299287, -1.219727, -0.307861, -0.237671, +12.388931, -16.688282, -28.332703 
1488856281.303127, 1488856281.303127, -1.219727, -0.307861, -0.237671, +12.388931, -16.688282, -28.332703 
1488856281.307180, 1488856281.307180, -1.056641, -0.362427, -0.422241, +12.388931, -16.688282, -28.332703 
1488856281.311131, 1488856281.311131, -1.056641, -0.362427, -0.422241, +30.394302, -15.971118, -16.949646 
1488856281.315089, 1488856281.315089, -1.056641, -0.362427, -0.422241, +30.394302, -15.971118, -16.949646 
1488856281.319035, 1488856281.319035, -1.056641, -0.362427, -0.422241, +30.394302, -15.971118, -5.627624 
1488856281.322990, 1488856281.322990, -1.056641, -0.362427, -0.422241, +41.395889, -14.002734, -5.627624 
1488856281.326729, 1488856281.326729, -0.998413, -0.140259, -0.351318, +41.395889, -14.002734, -5.627624 
1488856281.330476, 1488856281.330476, -0.998413, -0.140259, -0.351318, +42.875992, -10.905200, +0.475892 
1488856281.334328, 1488856281.334328, -0.998413, -0.140259, -0.351318, +42.875992, -10.905200, +0.475892 
1488856281.338274, 1488856281.338274, -0.998413, -0.140259, -0.351318, +42.875992, -10.905200, +0.475892 
1488856281.342221, 1488856281.342221, -0.998413, -0.140259, -0.351318, +38.695084, -9.394580, +1.391419 
1488856281.346175, 1488856281.346175, -1.107910, +0.079468, -0.296875, +38.695084, -9.394580, +1.391419 
1488856281.350116, 1488856281.350116, -1.107910, +0.079468, -0.296875, +38.695084, -9.394580, +1.391419 
1488856281.354072, 1488856281.354072, -1.107910, +0.079468, -0.296875, +32.255875, -9.333545, +1.086244 
1488856281.358012, 1488856281.358012, -1.107910, +0.079468, -0.296875, +32.255875, -9.333545, +1.086244 
1488856281.362092, 1488856281.362092, -1.107910, +0.079468, -0.296875, +32.255875, -9.333545, -0.348083 
1488856281.366329, 1488856281.366329, -1.118286, +0.043579, -0.226074, +26.915298, -9.104663, -0.348083 
1488856281.370273, 1488856281.370273, -1.118286, +0.043579, -0.226074, +26.915298, -9.104663, -0.348083 
1488856281.374210, 1488856281.374210, -1.118286, +0.043579, -0.226074, +24.901138, -9.379321, -1.782409 
1488856281.377960, 1488856281.377960, -1.118286, +0.043579, -0.226074, +24.901138, -9.379321, -1.782409 
1488856281.381708, 1488856281.381708, -1.118286, +0.043579, -0.226074, +24.901138, -9.379321, -1.782409 
1488856281.385598, 1488856281.385598, -1.091431, -0.061646, -0.244507, +23.405777, -11.851245, -3.094665 
1488856281.389532, 1488856281.389532, -1.091431, -0.061646, -0.244507, +23.405777, -11.851245, -3.094665 
1488856281.393478, 1488856281.393478, -1.091431, -0.061646, -0.244507, +23.405777, -11.851245, -3.094665 
1488856281.397232, 1488856281.397232, -1.091431, -0.061646, -0.244507, +24.931656, -13.819629, -4.803649 
1488856281.400983, 1488856281.400983, -1.091431, -0.061646, -0.244507, +24.931656, -13.819629, -4.803649 
1488856281.404738, 1488856281.404738, -1.091431, -0.050293, -0.373413, +24.931656, -13.819629, -4.803649 
1488856281.408484, 1488856281.408484, -0.986084, -0.050293, -0.373413, +27.006851, -15.376025, -6.848327 
1488856281.412240, 1488856281.412240, -0.986084, -0.050293, -0.373413, +27.006851, -15.376025, -6.848327 
1488856281.416148, 1488856281.416148, -0.986084, -0.050293, -0.373413, +27.006851, -15.376025, -6.848327 
1488856281.419902, 1488856281.419902, -0.986084, -0.050293, -0.373413, +28.639542, -15.116626, -9.167663 
1488856281.423828, 1488856281.423828, -0.986084, -0.050293, -0.279663, +28.639542, -15.116626, -9.167663 
1488856281.427582, 1488856281.427582, -1.054199, -0.004517, -0.256470, +28.639542, -15.116626, -13.073913 
1488856281.431342, 1488856281.431342, -1.054199, -0.004517, -0.256470, +28.883682, -16.459400, -12.768737 
1488856281.435206, 1488856281.435206, -1.054199, -0.004517, -0.256470, +28.883682, -16.459400, -12.768737 
1488856281.439159, 1488856281.439159, -1.054199, -0.004517, -0.256470, +28.883682, -18.961842, -16.217224 
1488856281.443115, 1488856281.443115, -1.054199, -0.004517, -0.256470, +28.486954, -18.961842, -16.217224 
1488856281.447068, 1488856281.447068, -0.987671, -0.015381, -0.193604, +28.486954, -18.961842, -16.217224 
1488856281.451010, 1488856281.451010, -0.987671, -0.015381, -0.193604, +25.328384, -19.602711, -20.825378 
1488856281.454892, 1488856281.454892, -0.987671, -0.015381, -0.193604, +25.328384, -19.602711, -20.825378 
1488856281.458755, 1488856281.458755, -0.987671, -0.015381, -0.193604, +25.328384, -19.602711, -20.825378 
1488856281.462507, 1488856281.462507, -0.987671, -0.015381, -0.193604, +21.498428, -23.371632, -28.607361 
1488856281.466434, 1488856281.466434, -1.011108, +0.120483, -0.180054, +21.498428, -23.371632, -28.607361 
1488856281.470370, 1488856281.470370, -1.011108, +0.120483, -0.180054, +21.498428, -23.371632, -28.607361 
1488856281.474388, 1488856281.474388, -1.011108, +0.120483, -0.180054, +13.563858, -26.041920, -37.503235 
1488856281.478142, 1488856281.478142, -1.011108, +0.120483, -0.180054, +13.563858, -26.041920, -37.503235 
1488856281.482060, 1488856281.482060, -1.011108, +0.120483, -0.180054, +13.563858, -26.041920, -43.225281 
1488856281.486374, 1488856281.486374, -0.988037, +0.068237, -0.364990, +2.669083, -27.323658, -43.225281 
1488856281.490312, 1488856281.490312, -0.988037, +0.068237, -0.364990, +2.669083, -27.323658, -43.225281 
1488856281.494274, 1488856281.494274, -0.988037, +0.068237, -0.364990, -3.602280, -25.034840, -45.254700 
1488856281.498218, 1488856281.498218, -0.988037, +0.068237, -0.364990, -3.602280, -25.034840, -45.254700 
1488856281.502165, 1488856281.502165, -0.988037, +0.068237, -0.364990, -3.602280, -25.034840, -45.254700 
1488856281.506133, 1488856281.506133, -1.222290, -0.151001, -0.308594, -0.138535, -26.530201, -46.277039 
1488856281.510083, 1488856281.510083, -1.222290, -0.151001, -0.308594, -0.138535, -26.530201, -46.277039 
1488856281.514051, 1488856281.514051, -1.222290, -0.151001, -0.308594, -0.138535, -26.530201, -46.277039 
1488856281.517797, 1488856281.517797, -1.222290, -0.151001, -0.308594, +5.858170, -30.039722, -46.566956 
1488856281.521546, 1488856281.521546, -1.222290, -0.151001, -0.308594, +5.858170, -30.039722, -46.566956 
1488856281.525303, 1488856281.525303, -1.197510, +0.079590, -0.336792, +5.858170, -30.039722, -46.566956 
1488856281.529057, 1488856281.529057, -1.197510, +0.079590, -0.336792, +10.634171, -32.481129, -46.383850 
1488856281.532806, 1488856281.532806, -1.197510, +0.079590, -0.336792, +10.634171, -32.481129, -46.383850 
1488856281.536701, 1488856281.536701, -1.197510, +0.079590, -0.336792, +10.634171, -32.481129, -47.192566 
1488856281.540451, 1488856281.540451, -1.197510, +0.079590, -0.336792, +15.043961, -34.724171, -47.192566 
1488856281.544406, 1488856281.544406, -1.348511, -0.009766, -0.232910, +15.043961, -34.724171, -47.192566 
1488856281.548354, 1488856281.548354, -1.348511, -0.009766, -0.232910, +12.770401, -37.135059, -52.670471 
1488856281.552303, 1488856281.552303, -1.348511, -0.009766, -0.232910, +12.770401, -37.135059, -52.670471 
1488856281.556299, 1488856281.556299, -1.348511, -0.009766, -0.232910, +12.770401, -37.135059, -52.670471 
1488856281.560245, 1488856281.560245, -1.348511, -0.009766, -0.232910, +10.588394, -42.857105, -59.170715 
1488856281.564202, 1488856281.564202, -1.384277, +0.056885, -0.279541, +10.588394, -42.857105, -59.170715 
1488856281.568150, 1488856281.568150, -1.384277, +0.056885, -0.279541, +10.588394, -42.857105, -59.170715 
1488856281.572095, 1488856281.572095, -1.384277, +0.056885, -0.279541, +1.723038, -48.457081, -66.235535 
1488856281.575891, 1488856281.575891, -1.384277, +0.056885, -0.279541, +1.723038, -48.457081, -66.235535 
1488856281.579633, 1488856281.579633, -1.384277, +0.056885, -0.279541, +1.723038, -48.457081, -66.235535 
1488856281.583406, 1488856281.583406, -1.384277, +0.040527, -0.467285, -0.245346, -54.301197, -72.537415 
1488856281.587349, 1488856281.587349, -1.405640, +0.040527, -0.467285, -0.245346, -54.301197, -72.537415 
1488856281.591298, 1488856281.591298, -1.405640, +0.040527, -0.467285, -0.245346, -58.207447, -77.847473 
1488856281.595283, 1488856281.595283, -1.405640, +0.040527, -0.467285, -0.550522, -59.977467, -77.847473 
1488856281.599636, 1488856281.599636, -1.405640, +0.040527, -0.467285, -0.550522, -59.977467, -77.847473 
1488856281.603682, 1488856281.603682, -1.526123, -0.033203, -0.620117, +2.714859, -65.958908, -82.409851 
1488856281.607753, 1488856281.607753, -1.526123, -0.033203, -0.620117, +2.714859, -65.958908, -82.409851 
1488856281.612236, 1488856281.612236, -1.526123, -0.033203, -0.620117, +2.714859, -65.958908, -82.409851 
1488856281.616014, 1488856281.616014, -1.526123, -0.033203, -0.620117, +7.750259, -72.810104, -87.628357 
1488856281.619759, 1488856281.619759, -1.526123, -0.033203, -0.620117, +7.750259, -72.810104, -87.628357 
1488856281.623506, 1488856281.623506, -1.592773, -0.070801, -0.826172, +7.750259, -72.810104, -91.534607 
1488856281.627248, 1488856281.627248, -1.592773, -0.070801, -0.826172, +16.157852, -77.052048, -92.633240 
1488856281.630994, 1488856281.630994, -1.592773, -0.070801, -0.826172, +16.157852, -77.052048, -92.633240 
1488856281.634778, 1488856281.634778, -1.592773, -0.070801, -0.826172, +16.157852, -77.052048, -95.776550 
1488856281.638520, 1488856281.638520, -1.592773, -0.070801, -0.826172, +29.066788, -80.790451, -95.776550 
1488856281.642263, 1488856281.642263, -1.592773, -0.070801, -0.826172, +29.066788, -80.790451, -95.776550 
1488856281.646017, 1488856281.646017, -1.601074, +0.041504, -0.813232, +29.066788, -83.704880, -97.271912 
1488856281.649761, 1488856281.649761, -1.601074, +0.041504, -0.813232, +45.088516, -83.704880, -97.271912 
1488856281.653613, 1488856281.653613, -1.601074, +0.041504, -0.813232, +45.088516, -83.704880, -97.271912 
1488856281.657362, 1488856281.657362, -1.601074, +0.041504, -0.813232, +61.476456, -87.931564, -97.485535 
1488856281.661111, 1488856281.661111, -1.601074, +0.041504, -0.813232, +61.476456, -87.931564, -97.485535 
1488856281.665046, 1488856281.665046, -1.844116, +0.316162, -0.680420, +61.476456, -87.931564, -97.485535 
1488856281.668987, 1488856281.668987, -1.844116, +0.316162, -0.680420, +66.298233, -92.005661, -101.620667 
1488856281.672935, 1488856281.672935, -1.844116, +0.316162, -0.680420, +66.298233, -92.005661, -101.620667 
1488856281.676726, 1488856281.676726, -1.844116, +0.316162, -0.680420, +66.298233, -92.005661, -101.620667 
1488856281.680475, 1488856281.680475, -1.844116, +0.316162, -0.680420, +69.990860, -94.477585, -108.395569 
1488856281.684326, 1488856281.684326, -1.996704, +0.918457, -1.057251, +69.990860, -94.477585, -108.395569 
1488856281.688277, 1488856281.688277, -1.996704, +0.918457, -1.057251, +69.990860, -94.477585, -108.395569 
1488856281.692220, 1488856281.692220, -1.996704, +0.918457, -1.057251, +78.749405, -98.261765, -111.920349 
1488856281.696021, 1488856281.696021, -1.996704, +0.918457, -1.057251, +78.749405, -98.261765, -111.920349 
1488856281.699769, 1488856281.699769, -1.996704, +0.918457, -1.057251, +78.749405, -98.261765, -104.107849 
1488856281.703622, 1488856281.703622, -1.992920, +0.522461, -0.792358, +103.956924, -100.871017, -105.496399 
1488856281.707376, 1488856281.707376, -1.992920, +0.522461, -0.792358, +103.956924, -100.871017, -105.496399 
1488856281.711123, 1488856281.711123, -1.992920, +0.522461, -0.792358, +103.956924, -100.871017, -97.699158 
1488856281.715151, 1488856281.715151, -1.992920, +0.522461, -0.792358, +128.584610, -101.130417, -97.699158 
1488856281.719109, 1488856281.719109, -1.992920, +0.522461, -0.792358, +128.584610, -101.130417, -97.699158 
1488856281.724115, 1488856281.724115, -1.966064, +0.310669, -0.810547, +141.859756, -105.265549, -94.586365 
1488856281.727864, 1488856281.727864, -1.966064, +0.310669, -0.810547, +141.859756, -105.265549, -94.586365 
1488856281.731610, 1488856281.731610, -1.966064, +0.310669, -0.810547, +141.859756, -105.265549, -94.586365 
1488856281.735431, 1488856281.735431, -1.966064, +0.310669, -0.810547, +130.781876, -113.184860, -92.267029 
1488856281.739175, 1488856281.739175, -1.966064, +0.310669, -0.810547, +130.781876, -113.184860, -92.267029 
1488856281.742920, 1488856281.742920, -1.552490, +0.492065, -0.774170, +130.781876, -113.184860, -92.267029 
1488856281.746719, 1488856281.746719, -1.552490, +0.492065, -0.774170, +91.475235, -119.196823, -93.670837 
1488856281.750460, 1488856281.750460, -1.552490, +0.492065, -0.774170, +91.475235, -119.196823, -93.670837 
1488856281.754358, 1488856281.754358, -1.552490, +0.492065, -0.774170, +91.475235, -119.196823, -97.348206 
1488856281.758106, 1488856281.758106, -1.552490, +0.492065, -0.774170, +34.407364, -111.262253, -97.348206 
1488856281.761846, 1488856281.761846, -1.552490, +0.367065, -0.645386, +34.407364, -111.262253, -97.348206 
1488856281.765611, 1488856281.765611, -1.151733, +0.347534, -0.645386, +34.407364, -99.543503, -101.361267 
1488856281.769356, 1488856281.769356, -1.151733, +0.347534, -0.645386, -17.884506, -101.115158, -101.361267 
1488856281.773168, 1488856281.773168, -1.151733, +0.347534, -0.645386, -17.884506, -101.115158, -101.361267 
1488856281.776936, 1488856281.776936, -1.151733, +0.347534, -0.645386, -55.619492, -86.115768, -106.671326 
1488856281.780681, 1488856281.780681, -1.151733, +0.347534, -0.645386, -55.619492, -86.115768, -106.671326 
1488856281.784632, 1488856281.784632, -0.624878, -0.772461, -0.214844, -55.619492, -86.115768, -106.671326 
1488856281.788574, 1488856281.788574, -0.624878, -0.772461, -0.214844, -61.311020, -45.313770, -95.532410 
1488856281.792527, 1488856281.792527, -0.624878, -0.772461, -0.214844, -61.311020, -45.313770, -95.532410 
1488856281.796517, 1488856281.796517, -0.624878, -0.772461, -0.214844, -61.311020, -45.313770, -95.532410 
1488856281.800460, 1488856281.800460, -0.624878, -0.772461, -0.214844, -20.875229, -9.623462, -62.344543 
1488856281.804404, 1488856281.804404, -1.061890, -0.805542, -0.175049, -20.875229, -9.623462, -62.344543 
1488856281.808342, 1488856281.808342, -1.061890, -0.805542, -0.175049, -20.875229, -9.623462, -62.344543 
1488856281.812285, 1488856281.812285, -1.061890, -0.805542, -0.175049, +35.383926, -7.044726, -23.739807 
1488856281.816063, 1488856281.816063, -1.061890, -0.805542, -0.175049, +35.383926, -7.044726, -23.739807 
1488856281.819805, 1488856281.819805, -1.061890, -0.805542, -0.175049, +35.383926, -7.044726, +5.816468 
1488856281.823632, 1488856281.823632, -0.310425, +0.331909, -0.544312, +60.072647, -4.511767, +5.816468 
1488856281.827384, 1488856281.827384, -0.310425, +0.331909, -0.544312, +60.072647, -4.511767, +5.816468 
1488856281.831127, 1488856281.831127, -0.310425, +0.331909, -0.544312, +60.072647, -0.819140, +28.933533 
1488856281.835071, 1488856281.835071, -0.310425, +0.331909, -0.544312, +63.170181, -0.819140, +28.933533 
1488856281.839073, 1488856281.839073, -0.310425, +0.331909, -0.544312, +63.170181, -0.819140, +28.933533 
1488856281.843440, 1488856281.843440, +0.104004, +0.869019, -0.039673, +51.253067, +10.594434, +47.839172 
1488856281.847398, 1488856281.847398, +0.104004, +0.869019, -0.039673, +51.253067, +10.594434, +47.839172 
1488856281.851340, 1488856281.851340, +0.104004, +0.869019, -0.039673, +51.253067, +10.594434, +47.839172 
1488856281.855305, 1488856281.855305, +0.104004, +0.869019, -0.039673, +17.287003, +30.827587, +64.333923 
1488856281.859252, 1488856281.859252, +0.104004, +0.869019, -0.039673, +17.287003, +30.827587, +64.333923 
1488856281.863255, 1488856281.863255, -0.092041, +0.382446, -0.071777, +17.287003, +30.827587, +76.312073 
1488856281.867205, 1488856281.867205, -0.092041, +0.382446, -0.071777, -24.216904, +52.952831, +76.312073 
1488856281.871150, 1488856281.871150, -0.092041, +0.382446, -0.071777, -24.216904, +52.952831, +76.312073 
1488856281.875010, 1488856281.875010, -0.092041, +0.382446, -0.071777, -47.837509, +74.757645, +89.373596 
1488856281.878758, 1488856281.878758, -0.092041, +0.382446, -0.071777, -47.837509, +74.757645, +89.373596 
1488856281.882504, 1488856281.882504, -0.358521, +0.025513, -0.135132, -47.837509, +74.757645, +89.373596 
1488856281.886262, 1488856281.886262, -0.358521, +0.025513, -0.135132, -52.888168, +91.954300, +105.929382 
1488856281.890015, 1488856281.890015, -0.358521, +0.025513, -0.135132, -52.888168, +91.954300, +105.929382 
1488856281.893806, 1488856281.893806, -0.358521, +0.025513, -0.135132, -52.888168, +91.954300, +105.929382 
1488856281.897567, 1488856281.897567, -0.358521, +0.025513, -0.135132, -49.332870, +102.650711, +123.003967 
1488856281.901324, 1488856281.901324, -0.434448, +0.005615, -0.130005, -49.332870, +102.650711, +123.003967 
1488856281.905274, 1488856281.905274, -0.434448, +0.005615, -0.130005, -49.332870, +102.650711, +123.003967 
1488856281.909020, 1488856281.909020, -0.434448, +0.005615, -0.130005, -42.496933, +112.279007, +139.712341 
1488856281.912760, 1488856281.912760, -0.434448, +0.005615, -0.130005, -42.496933, +112.279007, +139.712341 
1488856281.916587, 1488856281.916587, -0.434448, +0.005615, -0.130005, -42.496933, +112.279007, +139.712341 
1488856281.920335, 1488856281.920335, -0.434448, +0.005615, -0.149414, -38.621201, +122.426102, +157.290466 
1488856281.924096, 1488856281.924096, -0.466553, +0.286255, -0.149414, -38.621201, +122.426102, +157.290466 
1488856281.927847, 1488856281.927847, -0.466553, +0.286255, -0.149414, -38.621201, +122.426102, +157.290466 
1488856281.931589, 1488856281.931589, -0.466553, +0.286255, -0.149414, -44.144882, +130.482742, +175.158508 
1488856281.935392, 1488856281.935392, -0.466553, +0.286255, -0.149414, -44.144882, +130.482742, +175.158508 
1488856281.939132, 1488856281.939132, -0.466553, +0.286255, -0.149414, -44.144882, +130.482742, +175.158508 
1488856281.942875, 1488856281.942875, -0.531616, +0.506958, -0.308838, -44.129623, +141.728470, +189.318665 
1488856281.946629, 1488856281.946629, -0.531616, +0.506958, -0.308838, -44.129623, +141.728470, +189.318665 
1488856281.950379, 1488856281.950379, -0.531616, +0.506958, -0.308838, -44.129623, +141.728470, +199.175842 
1488856281.954193, 1488856281.954193, -0.531616, +0.506958, -0.308838, -55.115952, +151.692459, +199.175842 
1488856281.958140, 1488856281.958140, -0.531616, +0.506958, -0.308838, -55.115952, +151.692459, +199.175842 
1488856281.962171, 1488856281.962171, -0.748535, +0.551270, -0.133545, -80.720200, +162.999222, +202.700623 
1488856281.966397, 1488856281.966397, -0.748535, +0.551270, -0.133545, -80.720200, +162.999222, +202.700623 
1488856281.970347, 1488856281.970347, -0.748535, +0.551270, -0.133545, -80.720200, +162.999222, +202.700623 
1488856281.974253, 1488856281.974253, -0.748535, +0.551270, -0.133545, -103.730453, +172.902176, +205.172546 
1488856281.978007, 1488856281.978007, -0.748535, +0.551270, -0.133545, -103.730453, +172.902176, +205.172546 
1488856281.981758, 1488856281.981758, -1.101440, +0.123291, -0.268555, -103.730453, +172.902176, +205.172546 
1488856281.985702, 1488856281.985702, -1.101440, +0.123291, -0.268555, -106.583847, +177.373001, +210.558899 
1488856281.989656, 1488856281.989656, -1.101440, +0.123291, -0.268555, -106.583847, +177.373001, +210.558899 
1488856281.993586, 1488856281.993586, -1.101440, +0.123291, -0.268555, -106.583847, +177.373001, +210.558899 
1488856281.997340, 1488856281.997340, -1.101440, +0.123291, -0.268555, -84.519638, +172.429153, +222.781189 
1488856282.001091, 1488856282.001091, -1.548340, +0.073364, -0.284912, -84.519638, +172.429153, +222.781189 
1488856282.004857, 1488856282.004857, -1.548340, +0.073364, -0.284912, -84.519638, +172.429153, +237.963684 
1488856282.008608, 1488856282.008608, -1.548340, +0.073364, -0.284912, -70.191635, +161.854813, +237.963684 
1488856282.012366, 1488856282.012366, -1.548340, +0.073364, -0.284912, -70.191635, +161.854813, +237.963684 
1488856282.016273, 1488856282.016273, -1.548340, +0.073364, -0.284912, -70.191635, +153.950760, +251.269348 
1488856282.020022, 1488856282.020022, -1.548340, +0.074097, -0.224731, -77.348007, +153.950760, +251.269348 
1488856282.023834, 1488856282.023834, -1.569580, +0.074097, -0.224731, -77.348007, +153.950760, +251.269348 
1488856282.027779, 1488856282.027779, -1.569580, +0.074097, -0.224731, -92.805161, +156.117508, +261.050232 
1488856282.031730, 1488856282.031730, -1.569580, +0.074097, -0.224731, -92.805161, +156.117508, +261.050232 
1488856282.035696, 1488856282.035696, -1.569580, +0.074097, -0.224731, -92.805161, +156.117508, +261.050232 
1488856282.039647, 1488856282.039647, -1.569580, +0.074097, -0.443726, -99.412216, +160.420486, +269.396790 
1488856282.043604, 1488856282.043604, -1.629639, +0.067139, -0.443726, -99.412216, +160.420486, +269.396790 
1488856282.047663, 1488856282.047663, -1.629639, +0.067139, -0.443726, -99.412216, +160.420486, +269.396790 
1488856282.051617, 1488856282.051617, -1.629639, +0.067139, -0.443726, -103.059067, +160.893509, +274.661072 
1488856282.055575, 1488856282.055575, -1.629639, +0.067139, -0.443726, -103.059067, +160.893509, +274.661072 
1488856282.059524, 1488856282.059524, -1.629639, +0.160889, -0.587891, -103.059067, +164.799759, +276.278503 
1488856282.063466, 1488856282.063466, -1.841919, +0.176880, -0.587891, -114.075912, +163.380692, +276.278503 
1488856282.067218, 1488856282.067218, -1.841919, +0.176880, -0.587891, -114.075912, +163.380692, +276.278503 
1488856282.070970, 1488856282.070970, -1.841919, +0.176880, -0.587891, -131.150497, +169.362137, +272.936829 
1488856282.074728, 1488856282.074728, -1.841919, +0.176880, -0.587891, -131.150497, +169.362137, +272.936829 
1488856282.078472, 1488856282.078472, -1.841919, +0.176880, -0.587891, -131.150497, +169.362137, +272.936829 
1488856282.082353, 1488856282.082353, -2.288574, -0.223267, -0.644165, -145.890488, +173.024246, +261.675842 
1488856282.086712, 1488856282.086712, -2.288574, -0.223267, -0.644165, -145.890488, +173.024246, +261.675842 
1488856282.090660, 1488856282.090660, -2.288574, -0.223267, -0.644165, -145.890488, +173.024246, +261.675842 
1488856282.094610, 1488856282.094610, -2.288574, -0.223267, -0.644165, -154.328598, +174.504349, +247.179993 
1488856282.098550, 1488856282.098550, -2.288574, -0.223267, -0.644165, -154.328598, +174.504349, +247.179993 
1488856282.102508, 1488856282.102508, -2.910278, -0.758789, -0.409058, -154.328598, +174.504349, +231.554993 
1488856282.106508, 1488856282.106508, -2.910278, -0.758789, -0.409058, -146.638168, +165.181229, +231.463440 
1488856282.110461, 1488856282.110461, -2.910278, -0.758789, -0.409058, -146.638168, +165.181229, +231.463440 
1488856282.114343, 1488856282.114343, -2.910278, -0.758789, -0.409058, -119.294418, +134.938309, +212.527283 
1488856282.118100, 1488856282.118100, -2.910278, -0.758789, -0.409058, -115.754379, +134.938309, +212.527283 
1488856282.121855, 1488856282.121855, -2.331299, -1.638184, -0.157227, -115.754379, +134.938309, +212.527283 
1488856282.125614, 1488856282.125614, -2.331299, -1.638184, -0.157227, -79.270615, +105.641434, +176.150330 
1488856282.129368, 1488856282.129368, -2.331299, -1.638184, -0.157227, -79.270615, +105.641434, +176.150330 
1488856282.133198, 1488856282.133198, -2.331299, -1.638184, -0.157227, -79.270615, +105.641434, +176.150330 
1488856282.136967, 1488856282.136967, -2.331299, -1.638184, -0.157227, -67.750229, +94.548294, +118.166931 
1488856282.140709, 1488856282.140709, -1.940674, -2.080811, +0.307617, -67.750229, +94.548294, +118.166931 
1488856282.144618, 1488856282.144618, -1.940674, -2.080811, +0.307617, -67.750229, +94.548294, +118.166931 
1488856282.148566, 1488856282.148566, -1.940674, -2.080811, +0.307617, -65.293564, +80.617020, +56.872375 
1488856282.152510, 1488856282.152510, -1.940674, -2.080811, +0.307617, -65.293564, +80.617020, +56.872375 
1488856282.156509, 1488856282.156509, -1.940674, -2.080811, +0.307617, -65.293564, +80.617020, +56.872375 
1488856282.160455, 1488856282.160455, -2.095337, -1.849365, +0.726196, -50.294174, +37.938183, -6.436339 
1488856282.164338, 1488856282.164338, -2.095337, -1.849365, +0.726196, -50.294174, +37.938183, -6.436339 
1488856282.168081, 1488856282.168081, -2.095337, -1.849365, +0.726196, -50.294174, +37.938183, -68.936340 
1488856282.171827, 1488856282.171827, -2.095337, -1.849365, +0.726196, -56.229843, -9.684497, -71.347229 
1488856282.175611, 1488856282.175611, -2.095337, -1.849365, +0.726196, -56.229843, -9.684497, -71.347229 
1488856282.179361, 1488856282.179361, -2.032104, -1.691284, +0.546387, -56.229843, -40.934498, -127.896301 
1488856282.183178, 1488856282.183178, -2.032104, -1.691284, +0.546387, -68.757309, -39.393360, -127.896301 
1488856282.186982, 1488856282.186982, -2.032104, -1.691284, +0.546387, -68.757309, -39.393360, -127.896301 
1488856282.190729, 1488856282.190729, -2.032104, -1.691284, +0.546387, -68.757309, -59.458668, -170.773499 
1488856282.194727, 1488856282.194727, -2.032104, -1.691284, +0.546387, -70.847763, -59.458668, -170.773499 
1488856282.198623, 1488856282.198623, -2.032104, +0.575073, -1.183105, -70.847763, -59.458668, -170.773499 
1488856282.203177, 1488856282.203177, -1.539917, +0.575073, -1.183105, -72.129501, -61.289722, -182.507507 
1488856282.207138, 1488856282.207138, -1.539917, +0.575073, -1.183105, -72.129501, -61.289722, -182.507507 
1488856282.211086, 1488856282.211086, -1.539917, +0.575073, -1.183105, -72.129501, -61.289722, -182.507507 
1488856282.214982, 1488856282.214982, -1.539917, +0.575073, -1.183105, -104.203476, -56.086475, -148.953430 
1488856282.218730, 1488856282.218730, -0.977417, +2.945068, -0.926270, -104.203476, -56.086475, -148.953430 
1488856282.222483, 1488856282.222483, -0.972656, +2.945068, -0.926270, -104.203476, -56.086475, -66.922180 
1488856282.226421, 1488856282.226421, -0.972656, +2.945068, -0.926270, +26.930557, -42.216236, -65.350525 
1488856282.230368, 1488856282.230368, -0.972656, +2.945068, -0.926270, +26.930557, -42.216236, -65.350525 
1488856282.234275, 1488856282.234275, -0.972656, +2.945068, -0.926270, +155.836807, -20.579273, -53.006165 
1488856282.238021, 1488856282.238021, -0.972656, +2.945068, +1.539062, +157.316910, -20.579273, -53.006165 
1488856282.241775, 1488856282.241775, -3.323853, -1.473999, +1.539062, +157.316910, -20.579273, -53.006165 
1488856282.245573, 1488856282.245573, -3.323853, -1.473999, +1.539062, +14.281021, -42.262012, -132.626526 
1488856282.249321, 1488856282.249321, -3.323853, -1.473999, +1.539062, +14.281021, -42.262012, -132.626526 
1488856282.253166, 1488856282.253166, -3.323853, -1.473999, +1.539062, +14.281021, -42.262012, -132.626526 
1488856282.256930, 1488856282.256930, -3.323853, -1.473999, +1.539062, -78.446640, -42.933399, -175.351135 
1488856282.260678, 1488856282.260678, -1.344971, +0.182007, -1.080444, -78.446640, -42.933399, -175.351135 
1488856282.264556, 1488856282.264556, -1.344971, +0.182007, -1.080444, -78.446640, -42.933399, -175.351135 
1488856282.268306, 1488856282.268306, -1.344971, +0.182007, -1.080444, -108.628525, -22.257740, -181.103699 
1488856282.272059, 1488856282.272059, -1.344971, +0.182007, -1.080444, -108.628525, -22.257740, -181.103699 
1488856282.275968, 1488856282.275968, -1.344971, +0.182007, -1.080444, -108.628525, -22.257740, -181.103699 
1488856282.279919, 1488856282.279919, -1.468872, -1.358032, -0.080322, -50.156845, -13.255054, -170.346252 
1488856282.283875, 1488856282.283875, -1.468872, -1.358032, -0.080322, -50.156845, -13.255054, -170.346252 
1488856282.287819, 1488856282.287819, -1.468872, -1.358032, -0.080322, -50.156845, -13.255054, -158.627502 
1488856282.291763, 1488856282.291763, -1.468872, -1.358032, -0.080322, +8.314835, -21.235401, -159.512512 
1488856282.295589, 1488856282.295589, -1.468872, -1.358032, -0.080322, +8.314835, -21.235401, -159.512512 
1488856282.299340, 1488856282.299340, -0.915039, -0.034302, -0.877319, +8.314835, -42.231495, -138.089172 
1488856282.303106, 1488856282.303106, -0.915039, -0.034302, -0.877319, +45.347916, -42.231495, -138.089172 
1488856282.307054, 1488856282.307054, -0.915039, -0.034302, -0.877319, +45.347916, -42.231495, -138.089172 
1488856282.310994, 1488856282.310994, -0.915039, -0.034302, -0.877319, +85.936295, -49.052174, -106.396667 
1488856282.314867, 1488856282.314867, -0.915039, -0.034302, -0.877319, +85.936295, -49.052174, -106.396667 
1488856282.318614, 1488856282.318614, -0.633179, -0.347534, -0.482910, +85.936295, -49.052174, -106.396667 
1488856282.322609, 1488856282.322609, -0.633179, -0.347534, -0.482910, +96.785294, -43.284351, -82.043640 
1488856282.326711, 1488856282.326711, -0.633179, -0.347534, -0.482910, +96.785294, -43.284351, -82.043640 
1488856282.330660, 1488856282.330660, -0.633179, -0.347534, -0.482910, +96.785294, -43.284351, -82.043640 
1488856282.334613, 1488856282.334613, -0.633179, -0.347534, -0.482910, +77.742325, -37.089283, -68.722717 
1488856282.339002, 1488856282.339002, -1.316284, +0.157104, -0.173462, +77.742325, -37.089283, -68.722717 
1488856282.342867, 1488856282.342867, -1.316284, +0.157104, -0.173462, +77.742325, -39.088184, -65.426819 
1488856282.346724, 1488856282.346724, -1.316284, +0.157104, -0.173462, +60.774551, -39.088184, -65.426819 
1488856282.350460, 1488856282.350460, -1.316284, +0.157104, -0.173462, +60.774551, -39.088184, -65.426819 
1488856282.354264, 1488856282.354264, -1.316284, +0.157104, -0.173462, +29.661880, -36.372120, -62.741272 
1488856282.358007, 1488856282.358007, -1.399292, +0.139648, -0.241211, +29.661880, -36.372120, -62.741272 
1488856282.361750, 1488856282.361750, -1.399292, +0.139648, -0.241211, +29.661880, -36.372120, -62.741272 
1488856282.365509, 1488856282.365509, -1.399292, +0.139648, -0.241211, +1.097427, -34.724171, -63.885681 
1488856282.369251, 1488856282.369251, -1.399292, +0.139648, -0.241211, +1.097427, -34.724171, -63.885681 
1488856282.373151, 1488856282.373151, -1.399292, +0.139648, -0.241211, +1.097427, -34.724171, -63.885681 
1488856282.376898, 1488856282.376898, -1.399292, +0.139648, -0.181152, -10.911240, -28.773243, -63.076965 
1488856282.380662, 1488856282.380662, -1.139404, -0.007935, -0.181152, -10.911240, -28.773243, -63.076965 
1488856282.384629, 1488856282.384629, -1.139404, -0.007935, -0.181152, -10.911240, -28.773243, -63.076965 
1488856282.388559, 1488856282.388559, -1.139404, -0.007935, -0.181152, -13.306870, -24.668629, -56.042664 
1488856282.392491, 1488856282.392491, -1.139404, -0.007935, -0.181152, -13.306870, -24.668629, -56.042664 
1488856282.396415, 1488856282.396415, -1.139404, -0.007935, -0.368652, -13.306870, -24.668629, -56.042664 
1488856282.400350, 1488856282.400350, -1.151855, -0.345459, -0.354736, -2.457870, -23.219044, -45.163147 
1488856282.404282, 1488856282.404282, -1.151855, -0.345459, -0.354736, -2.457870, -23.219044, -45.163147 
1488856282.408214, 1488856282.408214, -1.151855, -0.345459, -0.354736, -2.457870, -20.518238, -32.620422 
1488856282.412138, 1488856282.412138, -1.151855, -0.345459, -0.354736, +14.891373, -20.518238, -32.620422 
1488856282.416083, 1488856282.416083, -1.151855, -0.345459, -0.354736, +14.891373, -20.518238, -32.620422 
1488856282.420008, 1488856282.420008, -1.052612, -0.295532, -0.287109, +26.610123, -18.229420, -21.100037 
1488856282.423934, 1488856282.423934, -1.052612, -0.295532, -0.287109, +26.610123, -18.229420, -21.100037 
1488856282.427839, 1488856282.427839, -1.052612, -0.295532, -0.287109, +26.610123, -18.229420, -21.100037 
1488856282.431728, 1488856282.431728, -1.052612, -0.295532, -0.287109, +34.331070, -16.062672, -13.806334 
1488856282.435760, 1488856282.435760, -1.052612, -0.295532, -0.287109, +34.331070, -16.062672, -13.806334 
1488856282.439749, 1488856282.439749, -1.111328, +0.105225, -0.249634, +34.331070, -16.062672, -13.806334 
1488856282.443845, 1488856282.443845, -1.111328, +0.105225, -0.249634, +31.553970, -13.544971, -11.013976 
1488856282.448492, 1488856282.448492, -1.111328, +0.105225, -0.249634, +31.553970, -13.544971, -11.013976 
1488856282.452249, 1488856282.452249, -1.111328, +0.105225, -0.249634, +20.979630, -10.233813, -11.364928 
1488856282.456146, 1488856282.456146, -1.111328, +0.105225, -0.229370, +20.979630, -10.233813, -11.364928 
1488856282.459886, 1488856282.459886, -1.226929, -0.029785, -0.229370, +20.979630, -10.233813, -11.364928 
1488856282.463689, 1488856282.463689, -1.226929, -0.029785, -0.229370, +12.129532, -9.760791, -13.684264 
1488856282.467430, 1488856282.467430, -1.226929, -0.029785, -0.229370, +12.129532, -9.760791, -13.684264 
1488856282.471172, 1488856282.471172, -1.226929, -0.029785, -0.229370, +12.129532, -9.760791, -13.684264 
1488856282.474923, 1488856282.474923, -1.226929, -0.029785, -0.229370, +9.779678, -11.225635, -14.187804 
1488856282.478658, 1488856282.478658, -1.105225, -0.048950, -0.343750, +9.779678, -11.225635, -14.187804 
1488856282.482405, 1488856282.482405, -1.105225, -0.048950, -0.343750, +9.779678, -11.225635, -14.187804 
1488856282.486190, 1488856282.486190, -1.105225, -0.048950, -0.343750, +11.671768, -12.659961, -13.562194 
1488856282.490053, 1488856282.490053, -1.105225, -0.048950, -0.343750, +11.671768, -12.659961, -13.562194 
1488856282.493976, 1488856282.493976, -1.105225, -0.048950, -0.343750, +11.671768, -12.659961, -13.562194 
1488856282.497723, 1488856282.497723, -1.075684, -0.050537, -0.358032, +14.433609, -13.132983, -12.341491 
1488856282.501468, 1488856282.501468, -1.075684, -0.050537, -0.358032, +14.433609, -13.132983, -12.341491 
1488856282.505320, 1488856282.505320, -1.075684, -0.050537, -0.358032, +14.433609, -13.132983, -12.341491 
1488856282.509074, 1488856282.509074, -1.075684, -0.050537, -0.358032, +18.904434, -13.041430, -11.654845 
1488856282.512816, 1488856282.512816, -1.075684, -0.050537, -0.358032, +18.904434, -13.041430, -11.654845 
1488856282.516574, 1488856282.516574, -1.075684, -0.119507, -0.271851, +18.904434, -13.041430, -11.654845 
1488856282.520314, 1488856282.520314, -1.079834, -0.119507, -0.271851, +21.406876, -13.468677, -10.510436 
1488856282.524133, 1488856282.524133, -1.079834, -0.119507, -0.271851, +21.406876, -13.468677, -10.510436 
1488856282.528082, 1488856282.528082, -1.079834, -0.119507, -0.271851, +21.406876, -14.811450, -10.464660 
1488856282.532030, 1488856282.532030, -1.079834, -0.119507, -0.271851, +24.718033, -14.811450, -10.464660 
1488856282.535997, 1488856282.535997, -1.079834, -0.116699, -0.289551, +24.718033, -14.811450, -10.464660 
1488856282.539942, 1488856282.539942, -1.019165, -0.116699, -0.289551, +26.869522, -17.100269, -11.151305 
1488856282.543899, 1488856282.543899, -1.019165, -0.116699, -0.289551, +26.869522, -17.100269, -11.151305 
1488856282.547840, 1488856282.547840, -1.019165, -0.116699, -0.289551, +26.869522, -17.100269, -11.151305 
1488856282.551793, 1488856282.551793, -1.019165, -0.116699, -0.289551, +27.983414, -18.000538, -12.707702 
1488856282.555624, 1488856282.555624, -1.019165, -0.116699, -0.283447, +27.983414, -18.000538, -12.707702 
1488856282.559447, 1488856282.559447, -1.012573, -0.057495, -0.283447, +27.983414, -18.000538, -12.707702 
1488856282.563686, 1488856282.563686, -1.012573, -0.057495, -0.283447, +28.837906, -19.404346, -13.836852 
1488856282.567677, 1488856282.567677, -1.012573, -0.057495, -0.283447, +28.837906, -19.404346, -13.836852 
1488856282.571627, 1488856282.571627, -1.012573, -0.057495, -0.283447, +28.837906, -20.792896, -15.011779 
1488856282.575585, 1488856282.575585, -1.012573, -0.119995, -0.274780, +28.685318, -20.792896, -15.011779 
1488856282.579540, 1488856282.579540, -1.041016, -0.118774, -0.274780, +28.685318, -20.792896, -15.011779 
1488856282.583506, 1488856282.583506, -1.041016, -0.118774, -0.274780, +29.005753, -22.135670, -17.895691 
1488856282.587453, 1488856282.587453, -1.041016, -0.118774, -0.274780, +29.005753, -22.135670, -17.895691 
1488856282.591401, 1488856282.591401, -1.041016, -0.118774, -0.274780, +29.005753, -22.135670, -17.895691 
1488856282.595249, 1488856282.595249, -1.041016, -0.118774, -0.279419, +29.158340, -25.050098, -21.542542 
1488856282.599000, 1488856282.599000, -1.033325, -0.001587, -0.279419, +29.158340, -25.050098, -21.542542 
1488856282.602761, 1488856282.602761, -1.033325, -0.001587, -0.279419, +29.158340, -25.050098, -21.542542 
1488856282.606560, 1488856282.606560, -1.033325, -0.001587, -0.279419, +25.313126, -27.659351, -24.121277 
1488856282.610314, 1488856282.610314, -1.033325, -0.001587, -0.279419, +25.313126, -27.659351, -24.121277 
1488856282.614186, 1488856282.614186, -1.033325, -0.001587, -0.279419, +25.313126, -27.659351, -24.121277 
1488856282.617949, 1488856282.617949, -1.020386, -0.087036, -0.244385, +23.878799, -28.788502, -27.432434 
1488856282.621691, 1488856282.621691, -1.020386, -0.087036, -0.244385, +23.878799, -28.788502, -27.432434 
1488856282.625538, 1488856282.625538, -1.020386, -0.087036, -0.244385, +23.878799, -28.788502, -31.994812 
1488856282.629274, 1488856282.629274, -1.020386, -0.087036, -0.244385, +21.635757, -30.268604, -31.994812 
1488856282.633048, 1488856282.633048, -1.020386, -0.087036, -0.244385, +21.635757, -30.268604, -31.994812 
1488856282.636794, 1488856282.636794, -1.131470, -0.051880, -0.293701, +21.635757, -32.694752, -36.541931 
1488856282.640651, 1488856282.640651, -1.131470, -0.051880, -0.293701, +19.469009, -32.694752, -36.541931 
1488856282.644441, 1488856282.644441, -1.131470, -0.051880, -0.293701, +19.469009, -32.694752, -36.541931 
1488856282.648175, 1488856282.648175, -1.131470, -0.051880, -0.293701, +17.943130, -35.059864, -42.157166 
1488856282.651924, 1488856282.651924, -1.131470, -0.051880, -0.293701, +17.943130, -35.059864, -42.157166 
1488856282.655666, 1488856282.655666, -1.135498, +0.094971, -0.322998, +17.943130, -35.059864, -42.157166 
1488856282.659416, 1488856282.659416, -1.135498, +0.094971, -0.322998, +15.944229, -38.538868, -47.375671 
1488856282.663228, 1488856282.663228, -1.135498, +0.094971, -0.322998, +15.944229, -38.538868, -47.375671 
1488856282.666993, 1488856282.666993, -1.135498, +0.094971, -0.322998, +15.944229, -38.538868, -47.375671 
1488856282.670736, 1488856282.670736, -1.135498, +0.094971, -0.322998, +15.913712, -42.002613, -52.319519 
1488856282.674573, 1488856282.674573, -1.135498, +0.094971, -0.259521, +15.913712, -42.002613, -52.319519 
1488856282.678522, 1488856282.678522, -1.291382, +0.025146, -0.259521, +15.913712, -42.002613, -52.319519 
1488856282.682925, 1488856282.682925, -1.291382, +0.025146, -0.259521, +19.316422, -46.427662, -57.599060 
1488856282.686927, 1488856282.686927, -1.291382, +0.025146, -0.259521, +19.316422, -46.427662, -57.599060 
1488856282.690869, 1488856282.690869, -1.291382, +0.025146, -0.259521, +19.316422, -46.427662, -65.136902 
1488856282.694743, 1488856282.694743, -1.291382, +0.181396, -0.330933, +17.805801, -52.317554, -65.136902 
1488856282.698502, 1488856282.698502, -1.339355, +0.170898, -0.330933, +17.805801, -52.317554, -65.136902 
1488856282.702250, 1488856282.702250, -1.339355, +0.170898, -0.330933, +17.805801, -56.590015, -72.476379 
1488856282.706170, 1488856282.706170, -1.339355, +0.170898, -0.330933, +15.654312, -56.590015, -72.476379 
1488856282.710119, 1488856282.710119, -1.339355, +0.170898, -0.330933, +15.654312, -56.590015, -72.476379 
1488856282.714030, 1488856282.714030, -1.339355, +0.170898, -0.299683, +13.273941, -61.182911, -79.754822 
1488856282.717779, 1488856282.717779, -1.436157, +0.052490, -0.299194, +13.273941, -61.182911, -79.754822 
1488856282.721535, 1488856282.721535, -1.436157, +0.052490, -0.299194, +13.273941, -61.182911, -79.754822 
1488856282.725335, 1488856282.725335, -1.436157, +0.052490, -0.299194, +14.219986, -67.316940, -85.980408 
1488856282.729094, 1488856282.729094, -1.436157, +0.052490, -0.299194, +14.219986, -67.316940, -85.980408 
1488856282.732850, 1488856282.732850, -1.436157, +0.052490, -0.299194, +14.219986, -67.316940, -85.980408 
1488856282.736991, 1488856282.736991, -1.499634, +0.017456, -0.505249, +16.539322, -73.267868, -91.153137 
1488856282.740939, 1488856282.740939, -1.499634, +0.017456, -0.505249, +16.539322, -73.267868, -91.153137 
1488856282.744805, 1488856282.744805, -1.499634, +0.017456, -0.505249, +16.539322, -73.267868, -91.153137 
1488856282.748558, 1488856282.748558, -1.499634, +0.017456, -0.505249, +22.078262, -77.937057, -96.524231 
1488856282.752304, 1488856282.752304, -1.499634, +0.017456, -0.505249, +22.078262, -77.937057, -96.524231 
1488856282.756204, 1488856282.756204, -1.567993, +0.087891, -0.744995, +22.078262, -77.937057, -100.476257 
1488856282.760064, 1488856282.760064, -1.567993, +0.087891, -0.744995, +30.501114, -81.171921, -100.476257 
1488856282.764043, 1488856282.764043, -1.567993, +0.087891, -0.744995, +30.501114, -81.171921, -100.476257 
1488856282.768067, 1488856282.768067, -1.567993, +0.087891, -0.744995, +42.753922, -84.223679, -101.330750 
1488856282.772179, 1488856282.772179, -1.567993, +0.087891, -0.744995, +42.753922, -84.223679, -101.330750 
1488856282.776001, 1488856282.776001, -1.721680, +0.357300, -0.713257, +42.753922, -84.223679, -101.330750 
1488856282.779742, 1488856282.779742, -1.721680, +0.357300, -0.713257, +53.633438, -87.901047, -100.735657 
1488856282.783504, 1488856282.783504, -1.721680, +0.357300, -0.713257, +53.633438, -87.901047, -100.735657 
1488856282.787357, 1488856282.787357, -1.721680, +0.357300, -0.713257, +53.633438, -87.901047, -100.735657 
1488856282.791094, 1488856282.791094, -1.721680, +0.357300, -0.713257, +60.988174, -91.883591, -106.961243 
1488856282.794848, 1488856282.794848, -2.069092, +0.558105, -0.943726, +60.988174, -91.883591, -106.961243 
1488856282.798593, 1488856282.798593, -2.069092, +0.558105, -0.943726, +60.988174, -91.883591, -106.961243 
1488856282.802336, 1488856282.802336, -2.069092, +0.558105, -0.943726, +69.594131, -93.287399, -112.072937 
1488856282.806137, 1488856282.806137, -2.069092, +0.558105, -0.943726, +69.594131, -93.287399, -112.072937 
1488856282.809884, 1488856282.809884, -2.069092, +0.558105, -0.943726, +69.594131, -93.287399, -112.072937 
1488856282.813792, 1488856282.813792, -2.069092, +0.745605, -0.955933, +88.972794, -97.575119, -110.348694 
1488856282.817614, 1488856282.817614, -1.982666, +0.736328, -0.955933, +88.972794, -97.575119, -110.348694 
1488856282.821384, 1488856282.821384, -1.982666, +0.736328, -0.955933, +88.972794, -97.575119, -100.781433 
1488856282.825397, 1488856282.825397, -1.982666, +0.736328, -0.955933, +118.330704, -98.856857, -100.781433 
1488856282.829346, 1488856282.829346, -1.982666, +0.736328, -0.955933, +118.330704, -98.856857, -100.781433 
1488856282.833287, 1488856282.833287, -1.982666, +0.736328, -0.737183, +134.932266, -96.339157, -96.020691 
1488856282.837035, 1488856282.837035, -2.167603, +0.109009, -0.734375, +134.932266, -96.339157, -96.020691 
1488856282.840784, 1488856282.840784, -2.167603, +0.109009, -0.734375, +134.932266, -96.339157, -96.020691 
1488856282.844610, 1488856282.844610, -2.167603, +0.109009, -0.734375, +136.763321, -104.899338, -96.875183 
1488856282.848530, 1488856282.848530, -2.167603, +0.109009, -0.734375, +136.763321, -104.899338, -96.875183 
1488856282.852450, 1488856282.852450, -2.167603, +0.109009, -0.734375, +136.763321, -104.899338, -96.875183 
1488856282.856379, 1488856282.856379, -1.755615, +0.319214, -0.786743, +106.657730, -115.687302, -97.577087 
1488856282.860295, 1488856282.860295, -1.755615, +0.319214, -0.786743, +106.657730, -115.687302, -97.577087 
1488856282.864253, 1488856282.864253, -1.755615, +0.319214, -0.786743, +106.657730, -115.687302, -97.577087 
1488856282.868286, 1488856282.868286, -1.755615, +0.319214, -0.786743, +52.809464, -114.329269, -100.384705 
1488856282.872230, 1488856282.872230, -1.755615, +0.319214, -0.786743, +52.809464, -114.329269, -100.384705 
1488856282.876188, 1488856282.876188, -1.323242, +0.285156, -0.717407, +52.809464, -114.329269, -103.131287 
1488856282.880361, 1488856282.880361, -1.323242, +0.285156, -0.717407, +2.089249, -106.043747, -103.131287 
1488856282.884381, 1488856282.884381, -1.323242, +0.285156, -0.717407, +2.089249, -106.043747, -103.131287 
1488856282.888124, 1488856282.888124, -1.323242, +0.285156, -0.717407, -29.771103, -96.903732, -106.213562 
1488856282.891879, 1488856282.891879, -1.323242, +0.285156, -0.717407, -29.771103, -96.903732, -106.213562 
1488856282.895643, 1488856282.895643, -0.673340, -0.737915, -0.259033, -29.771103, -96.903732, -106.213562 
1488856282.899384, 1488856282.899384, -0.673340, -0.737915, -0.259033, -40.864243, -65.089157, -97.043030 
1488856282.903123, 1488856282.903123, -0.673340, -0.737915, -0.259033, -40.864243, -65.089157, -97.043030 
1488856282.906872, 1488856282.906872, -0.673340, -0.737915, -0.259033, -40.864243, -65.089157, -97.043030 
1488856282.910615, 1488856282.910615, -0.673340, -0.737915, -0.259033, -21.363510, -24.424488, -64.969055 
1488856282.914407, 1488856282.914407, -1.201050, -0.773071, -0.125610, -21.363510, -24.424488, -64.969055 
1488856282.918153, 1488856282.918153, -1.201050, -0.773071, -0.125610, -21.363510, -24.424488, -64.969055 
1488856282.921894, 1488856282.921894, -1.201050, -0.773071, -0.125610, +26.274429, -21.265919, -29.431335 
1488856282.925645, 1488856282.925645, -1.201050, -0.773071, -0.125610, +26.274429, -21.265919, -29.431335 
1488856282.929388, 1488856282.929388, -1.201050, -0.773071, -0.125610, +26.274429, -21.265919, -29.431335 
1488856282.933421, 1488856282.933421, -0.419800, +0.209229, -0.451050, +57.738052, -20.075733, -1.294127 
1488856282.937167, 1488856282.937167, -0.415405, +0.209229, -0.451050, +57.738052, -20.075733, -1.294127 
1488856282.940907, 1488856282.940907, -0.415405, +0.209229, -0.451050, +57.738052, -20.075733, -1.294127 
1488856282.944808, 1488856282.944808, -0.415405, +0.209229, -0.451050, +65.825211, -16.184742, +22.906311 
1488856282.948725, 1488856282.948725, -0.415405, +0.209229, -0.451050, +65.825211, -16.184742, +22.906311 
1488856282.952643, 1488856282.952643, -0.415405, +0.209229, +0.017456, +65.825211, -4.893237, +42.620667 
1488856282.956575, 1488856282.956575, +0.064941, +0.777832, +0.017456, +54.121719, -4.893237, +42.620667 
1488856282.960497, 1488856282.960497, +0.064941, +0.777832, +0.017456, +54.121719, -4.893237, +42.620667 
1488856282.964467, 1488856282.964467, +0.064941, +0.777832, +0.017456, +19.530045, +13.157910, +59.069641 
1488856282.968347, 1488856282.968347, +0.064941, +0.777832, +0.017456, +19.530045, +13.157910, +59.069641 
1488856282.972102, 1488856282.972102, +0.064941, +0.777832, -0.076294, +19.530045, +13.157910, +59.069641 
1488856282.976127, 1488856282.976127, -0.022827, +0.408447, -0.062744, -24.216904, +34.443920, +71.322449 
1488856282.980491, 1488856282.980491, -0.022827, +0.408447, -0.062744, -24.216904, +34.443920, +71.322449 
1488856282.984289, 1488856282.984289, -0.022827, +0.408447, -0.062744, -24.216904, +34.443920, +71.322449 
1488856282.988024, 1488856282.988024, -0.022827, +0.408447, -0.062744, -51.591171, +56.523388, +82.125671 
1488856282.991768, 1488856282.991768, -0.022827, +0.408447, -0.062744, -51.591171, +56.523388, +82.125671 
1488856282.995568, 1488856282.995568, -0.275269, +0.030884, -0.080078, -51.591171, +56.523388, +82.125671 
1488856282.999314, 1488856282.999314, -0.275269, +0.030884, -0.080078, -60.426010, +76.115677, +95.507629 
1488856283.003164, 1488856283.003164, -0.275269, +0.030884, -0.080078, -60.426010, +76.115677, +95.507629 
1488856283.006932, 1488856283.006932, -0.275269, +0.030884, -0.080078, -60.426010, +76.115677, +111.620911 
1488856283.010673, 1488856283.010673, -0.275269, +0.030884, -0.080078, -55.588974, +93.098709, +111.620911 
1488856283.014472, 1488856283.014472, -0.395630, +0.140991, -0.056274, -55.588974, +93.098709, +111.620911 
1488856283.018223, 1488856283.018223, -0.395630, +0.140991, -0.056274, -55.588974, +105.214188, +131.854065 
1488856283.021977, 1488856283.021977, -0.395630, +0.140991, -0.056274, -52.964462, +105.214188, +131.854065 
1488856283.025889, 1488856283.025889, -0.395630, +0.140991, -0.056274, -52.964462, +105.214188, +131.854065 
1488856283.029648, 1488856283.029648, -0.395630, +0.140991, -0.056274, -50.736679, +115.223953, +150.042542 
1488856283.033553, 1488856283.033553, -0.361084, +0.422241, -0.227661, -50.736679, +115.223953, +150.042542 
1488856283.037308, 1488856283.037308, -0.361084, +0.422241, -0.227661, -50.736679, +115.223953, +150.042542 
1488856283.041055, 1488856283.041055, -0.361084, +0.422241, -0.227661, -52.354111, +126.317093, +162.631042 
1488856283.044935, 1488856283.044935, -0.361084, +0.422241, -0.227661, -52.354111, +126.317093, +162.631042 
1488856283.048875, 1488856283.048875, -0.361084, +0.422241, -0.227661, -52.354111, +126.317093, +162.631042 
1488856283.052826, 1488856283.052826, -0.487915, +0.525757, -0.125488, -68.207993, +140.751907, +171.008118 
1488856283.056789, 1488856283.056789, -0.487915, +0.525757, -0.125488, -68.207993, +140.751907, +171.008118 
1488856283.060738, 1488856283.060738, -0.487915, +0.525757, -0.125488, -68.207993, +140.751907, +171.008118 
1488856283.064696, 1488856283.064696, -0.487915, +0.525757, -0.125488, -89.982285, +154.988358, +176.730164 
1488856283.068642, 1488856283.068642, -0.487915, +0.525757, -0.125488, -89.982285, +154.988358, +176.730164 
1488856283.072589, 1488856283.072589, -0.771362, +0.326416, -0.047119, -105.607285, +164.998123, +181.918152 
1488856283.076544, 1488856283.076544, -0.771362, +0.326416, -0.047119, -105.607285, +164.998123, +181.918152 
1488856283.080598, 1488856283.080598, -0.771362, +0.326416, -0.047119, -105.607285, +164.998123, +181.918152 
1488856283.084487, 1488856283.084487, -0.771362, +0.326416, -0.047119, -104.493393, +168.187210, +189.089783 
1488856283.088235, 1488856283.088235, -0.771362, +0.326416, -0.047119, -104.493393, +168.187210, +189.089783 
1488856283.092129, 1488856283.092129, -1.177612, +0.020996, -0.210327, -104.493393, +168.187210, +189.089783 
1488856283.096348, 1488856283.096348, -1.180664, +0.020996, -0.210327, -87.891830, +161.900589, +202.013977 
1488856283.100296, 1488856283.100296, -1.180664, +0.020996, -0.210327, -87.891830, +161.900589, +202.013977 
1488856283.104281, 1488856283.104281, -1.180664, +0.020996, -0.210327, -87.891830, +161.900589, +202.013977 
1488856283.108227, 1488856283.108227, -1.180664, +0.020996, -0.210327, -75.379623, +151.997635, +218.173035 
1488856283.112176, 1488856283.112176, -1.433105, +0.175293, -0.137207, -75.379623, +151.997635, +218.173035 
1488856283.116141, 1488856283.116141, -1.433105, +0.175293, -0.137207, -79.285873, +147.084305, +233.874329 
1488856283.120085, 1488856283.120085, -1.433105, +0.175293, -0.137207, -78.049911, +147.084305, +233.874329 
1488856283.124030, 1488856283.124030, -1.433105, +0.175293, -0.137207, -78.049911, +147.084305, +233.874329 
1488856283.127781, 1488856283.127781, -1.433105, +0.175293, -0.137207, -85.068954, +148.350784, +247.149475 
1488856283.131537, 1488856283.131537, -1.433105, +0.025391, -0.244629, -85.068954, +148.350784, +247.149475 
1488856283.135296, 1488856283.135296, -1.401001, +0.025391, -0.244629, -85.068954, +148.350784, +247.149475 
1488856283.139047, 1488856283.139047, -1.401001, +0.025391, -0.244629, -87.342514, +151.692459, +257.418640 
1488856283.142800, 1488856283.142800, -1.401001, +0.025391, -0.244629, -87.342514, +151.692459, +257.418640 
1488856283.146675, 1488856283.146675, -1.401001, +0.025391, -0.244629, -87.342514, +151.692459, +257.418640 
1488856283.150425, 1488856283.150425, -1.401001, +0.025391, -0.244629, -84.260239, +151.204178, +263.415344 
1488856283.154390, 1488856283.154390, -1.479370, +0.100586, -0.332642, -84.260239, +151.204178, +263.415344 
1488856283.158334, 1488856283.158334, -1.479370, +0.100586, -0.332642, -84.260239, +151.204178, +263.415344 
1488856283.162283, 1488856283.162283, -1.479370, +0.100586, -0.332642, -83.680405, +150.654861, +267.245300 
1488856283.166240, 1488856283.166240, -1.479370, +0.100586, -0.332642, -83.680405, +150.654861, +267.245300 
1488856283.170187, 1488856283.170187, -1.479370, +0.100586, -0.332642, -83.680405, +150.654861, +270.800598 
1488856283.174146, 1488856283.174146, -1.749146, +0.212646, -0.437866, -87.601913, +153.538773, +270.800598 
1488856283.178086, 1488856283.178086, -1.749146, +0.212646, -0.437866, -87.601913, +153.538773, +270.800598 
1488856283.182028, 1488856283.182028, -1.749146, +0.212646, -0.437866, -99.992050, +159.398148, +272.799500 
1488856283.185855, 1488856283.185855, -1.749146, +0.212646, -0.437866, -99.992050, +159.398148, +272.799500 
1488856283.189605, 1488856283.189605, -1.749146, +0.212646, -0.437866, -99.992050, +159.398148, +272.799500 
1488856283.193381, 1488856283.193381, -2.210205, +0.166260, -0.536865, -116.639389, +165.715286, +274.477966 
1488856283.197334, 1488856283.197334, -2.210205, +0.166260, -0.536865, -116.639389, +165.715286, +274.477966 
1488856283.201279, 1488856283.201279, -2.210205, +0.166260, -0.536865, -116.639389, +165.715286, +274.477966 
1488856283.205232, 1488856283.205232, -2.210205, +0.166260, -0.536865, -136.491074, +167.302200, +267.931946 
1488856283.209284, 1488856283.209284, -2.210205, +0.166260, -0.536865, -136.491074, +167.302200, +267.931946 
1488856283.213766, 1488856283.213766, -2.566040, -0.400513, -0.505981, -136.491074, +167.302200, +253.115662 
1488856283.217718, 1488856283.217718, -2.566040, -0.400513, -0.505981, -150.971664, +164.845535, +253.115662 
1488856283.221659, 1488856283.221659, -2.566040, -0.400513, -0.505981, -150.971664, +164.845535, +253.115662 
1488856283.225720, 1488856283.225720, -2.566040, -0.400513, -0.505981, -143.632187, +150.349686, +236.361511 
1488856283.229672, 1488856283.229672, -2.566040, -0.400513, -0.505981, -143.632187, +150.349686, +236.361511 
1488856283.233590, 1488856283.233590, -2.518188, -1.011230, -0.229370, -143.632187, +150.349686, +236.361511 
1488856283.237337, 1488856283.237337, -2.518188, -1.011230, -0.229370, -125.153793, +130.559036, +218.798645 
1488856283.241085, 1488856283.241085, -2.518188, -1.011230, -0.229370, -125.153793, +130.559036, +218.798645 
1488856283.244846, 1488856283.244846, -2.518188, -1.011230, -0.229370, -125.153793, +130.559036, +218.798645 
1488856283.248594, 1488856283.248594, -2.518188, -1.011230, -0.229370, -87.907089, +111.149857, +188.158997 
1488856283.252342, 1488856283.252342, -1.976562, -1.776367, -0.239014, -87.907089, +111.149857, +188.158997 
1488856283.256144, 1488856283.256144, -1.976562, -1.776367, -0.239014, -87.907089, +111.149857, +188.158997 
1488856283.259898, 1488856283.259898, -1.976562, -1.776367, -0.239014, -69.398178, +98.805496, +135.775574 
1488856283.263794, 1488856283.263794, -1.976562, -1.776367, -0.239014, -69.398178, +98.805496, +135.775574 
1488856283.267542, 1488856283.267542, -1.976562, -1.776367, -0.239014, -69.398178, +98.805496, +135.775574 
1488856283.271294, 1488856283.271294, -2.102905, -2.277954, +0.742065, -70.512070, +75.963089, +72.756775 
1488856283.275243, 1488856283.275243, -2.102905, -2.277954, +0.742065, -70.512070, +75.963089, +72.756775 
1488856283.279186, 1488856283.279186, -2.102905, -2.277954, +0.742065, -70.512070, +36.900585, +11.507997 
1488856283.283132, 1488856283.283132, -2.102905, -2.277954, +0.742065, -47.181381, +34.611767, +11.507997 
1488856283.286885, 1488856283.286885, -2.102905, -2.277954, +0.742065, -47.181381, +34.611767, +11.507997 
1488856283.290628, 1488856283.290628, -1.852905, -1.778320, +0.397705, -30.854477, -8.326465, -50.305359 
1488856283.294489, 1488856283.294489, -1.861694, -1.778320, +0.397705, -30.854477, -8.326465, -50.305359 
1488856283.298436, 1488856283.298436, -1.861694, -1.778320, +0.397705, -30.854477, -8.326465, -50.305359 
1488856283.302377, 1488856283.302377, -1.861694, -1.778320, +0.397705, -31.464828, -38.737232, -103.985779 
1488856283.306336, 1488856283.306336, -1.861694, -1.778320, +0.397705, -31.464828, -38.737232, -103.985779 
1488856283.310278, 1488856283.310278, -1.861694, -1.483887, +0.022461, -31.464828, -38.737232, -103.985779 
1488856283.314263, 1488856283.314263, -1.906006, -1.483887, +0.022461, -33.250107, -62.388355, -150.418274 
1488856283.318206, 1488856283.318206, -1.906006, -1.483887, +0.022461, -33.250107, -62.388355, -150.418274 
1488856283.322148, 1488856283.322148, -1.906006, -1.483887, +0.022461, -33.250107, -62.388355, -169.949524 
1488856283.326103, 1488856283.326103, -1.906006, -1.483887, +0.022461, -25.437607, -65.760544, -169.522278 
1488856283.330219, 1488856283.330219, -1.906006, +2.251831, -1.814087, -25.437607, -65.760544, -169.522278 
1488856283.334245, 1488856283.334245, -1.126953, +2.251831, -1.814087, -57.481064, -61.610157, -150.937073 
1488856283.337997, 1488856283.337997, -1.126953, +2.251831, -1.814087, -57.481064, -61.610157, -150.937073 
1488856283.341745, 1488856283.341745, -1.126953, +2.251831, -1.814087, -57.481064, -61.610157, -150.937073 
1488856283.345627, 1488856283.345627, -1.126953, +2.251831, -1.814087, +13.426529, -43.696339, -78.824036 
1488856283.349574, 1488856283.349574, -1.126953, +2.251831, +0.103760, +13.426529, -43.696339, -78.824036 
1488856283.353538, 1488856283.353538, -1.864380, +1.177124, +0.103760, +13.426529, -43.696339, -78.824036 
1488856283.357490, 1488856283.357490, -1.864380, +1.177124, +0.103760, +170.149551, -29.963428, -41.897766 
1488856283.361436, 1488856283.361436, -1.864380, +1.177124, +0.103760, +170.149551, -29.963428, -41.897766 
1488856283.365286, 1488856283.365286, -1.864380, +1.177124, +0.103760, +170.149551, -29.963428, -41.897766 
1488856283.369037, 1488856283.369037, -1.864380, +1.177124, +0.103760, +70.875870, -44.352467, -105.694763 
1488856283.372902, 1488856283.372902, -2.606445, -0.577148, +0.760620, +70.875870, -44.352467, -105.694763 
1488856283.376667, 1488856283.376667, -2.606445, -0.577148, +0.760620, +70.875870, -44.352467, -105.694763 
1488856283.380417, 1488856283.380417, -2.606445, -0.577148, +0.760620, -62.882675, -55.689747, -163.495056 
1488856283.384426, 1488856283.384426, -2.606445, -0.577148, +0.760620, -62.882675, -55.689747, -163.495056 
1488856283.388182, 1488856283.388182, -2.606445, -0.577148, +0.760620, -62.882675, -36.158497, -166.363708 
1488856283.391932, 1488856283.391932, -1.084839, -0.591797, -0.515625, -85.526718, -33.442432, -166.363708 
1488856283.395821, 1488856283.395821, -1.084839, -0.591797, -0.515625, -85.526718, -33.442432, -166.363708 
1488856283.399562, 1488856283.399562, -1.084839, -0.591797, -0.515625, -34.272446, -10.844165, -154.904358 
1488856283.403422, 1488856283.403422, -1.084839, -0.591797, -0.515625, -34.272446, -10.844165, -154.904358 
1488856283.407314, 1488856283.407314, -1.084839, -0.591797, -0.515625, -34.272446, -10.844165, -154.904358 
1488856283.411509, 1488856283.411509, -1.533447, -1.122192, -0.389404, -7.416977, -0.452929, -152.768127 
1488856283.415342, 1488856283.415342, -1.533447, -1.122192, -0.389404, -7.416977, -0.452929, -152.768127 
1488856283.419074, 1488856283.419074, -1.533447, -1.122192, -0.389404, -7.416977, -0.452929, -152.768127 
1488856283.422814, 1488856283.422814, -1.533447, -1.122192, -0.389404, +22.612320, -19.022877, -136.136047 
1488856283.426660, 1488856283.426660, -1.533447, -1.122192, -0.389404, +22.612320, -19.022877, -136.136047 
1488856283.430402, 1488856283.430402, -0.878784, -0.226807, -0.625000, +22.612320, -19.022877, -136.136047 
1488856283.434151, 1488856283.434151, -0.878784, -0.226807, -0.625000, +48.811661, -30.955250, -109.204285 
1488856283.437895, 1488856283.437895, -0.878784, -0.226807, -0.625000, +48.811661, -30.955250, -109.204285 
1488856283.441643, 1488856283.441643, -0.878784, -0.226807, -0.625000, +48.811661, -30.955250, -109.204285 
1488856283.445423, 1488856283.445423, -0.878784, -0.226807, -0.625000, +69.761978, -32.618458, -83.950989 
1488856283.449170, 1488856283.449170, -0.878784, -0.473755, -0.320923, +69.761978, -32.618458, -83.950989 
1488856283.452906, 1488856283.452906, -0.980957, -0.473755, -0.320923, +69.761978, -32.618458, -83.950989 
1488856283.456694, 1488856283.456694, -0.980957, -0.473755, -0.320923, +72.279678, -27.949268, -65.518372 
1488856283.460432, 1488856283.460432, -0.980957, -0.473755, -0.320923, +72.279678, -27.949268, -65.518372 
1488856283.464335, 1488856283.464335, -0.980957, -0.473755, -0.320923, +72.279678, -27.949268, -55.432312 
1488856283.468079, 1488856283.468079, -0.980957, -0.473755, -0.320923, +72.127090, -28.010303, -55.432312 
1488856283.471825, 1488856283.471825, -1.334473, +0.351562, -0.380615, +72.127090, -28.010303, -55.432312 
1488856283.475611, 1488856283.475611, -1.334473, +0.351562, -0.380615, +56.502090, -27.567799, -50.976746 
1488856283.479350, 1488856283.479350, -1.334473, +0.351562, -0.380615, +56.776749, -27.567799, -50.976746 
1488856283.483090, 1488856283.483090, -1.334473, +0.351562, -0.380615, +56.776749, -27.567799, -50.976746 
1488856283.486844, 1488856283.486844, -1.334473, +0.351562, -0.380615, +28.715836, -25.217945, -51.724426 
1488856283.490600, 1488856283.490600, -1.234863, +0.210938, -0.239990, +28.715836, -25.217945, -51.724426 
1488856283.494428, 1488856283.494428, -1.234863, +0.210938, -0.239990, +28.715836, -25.217945, -51.724426 
1488856283.498376, 1488856283.498376, -1.234863, +0.210938, -0.239990, +0.395523, -20.304615, -55.310242 
1488856283.502325, 1488856283.502325, -1.234863, +0.210938, -0.239990, +0.395523, -20.304615, -55.310242 
1488856283.506319, 1488856283.506319, -1.234863, +0.210938, -0.239990, +0.395523, -20.304615, -55.310242 
1488856283.510271, 1488856283.510271, -1.080200, -0.075195, -0.287964, -11.491074, -15.604907, -55.050842 
1488856283.514289, 1488856283.514289, -1.080200, -0.075195, -0.287964, -11.491074, -15.604907, -55.050842 
1488856283.518316, 1488856283.518316, -1.080200, -0.075195, -0.287964, -11.491074, -15.604907, -47.238342 
1488856283.522630, 1488856283.522630, -1.080200, -0.075195, -0.287964, -8.439316, -15.162402, -44.659607 
1488856283.526593, 1488856283.526593, -1.080200, -0.075195, -0.287964, -8.439316, -15.162402, -44.659607 
1488856283.530537, 1488856283.530537, -1.169312, -0.382202, -0.315186, +7.460342, -14.079028, -32.254211 
1488856283.534421, 1488856283.534421, -1.169312, -0.382202, -0.315186, +7.460342, -14.079028, -32.254211 
1488856283.538170, 1488856283.538170, -1.169312, -0.382202, -0.315186, +7.460342, -14.079028, -32.254211 
1488856283.541913, 1488856283.541913, -1.169312, -0.382202, -0.315186, +23.085342, -13.773852, -20.718567 
1488856283.545817, 1488856283.545817, -1.169312, -0.382202, -0.315186, +23.085342, -13.773852, -20.718567 
1488856283.549764, 1488856283.549764, -1.052002, -0.225708, -0.326782, +23.085342, -13.773852, -20.718567 
1488856283.553702, 1488856283.553702, -1.052002, -0.225708, -0.326782, +32.667862, -14.170581, -11.242858 
1488856283.557449, 1488856283.557449, -1.052002, -0.225708, -0.326782, +32.667862, -14.170581, -11.242858 
1488856283.561195, 1488856283.561195, -1.052002, -0.225708, -0.326782, +32.667862, -14.170581, -11.242858 
1488856283.565128, 1488856283.565128, -1.052002, -0.225708, -0.326782, +35.597549, -12.156421, -5.917541 
1488856283.568871, 1488856283.568871, -1.042603, +0.097656, -0.292847, +35.597549, -12.156421, -5.917541 
1488856283.572620, 1488856283.572620, -1.042603, +0.097656, -0.292847, +35.597549, -12.156421, -2.011291 
1488856283.576656, 1488856283.576656, -1.042603, +0.097656, -0.292847, +30.867325, -9.409839, -2.697936 
1488856283.580604, 1488856283.580604, -1.042603, +0.097656, -0.292847, +30.867325, -9.409839, -2.697936 
1488856283.584492, 1488856283.584492, -1.042603, +0.097656, -0.292847, +23.054825, -7.182055, -2.118102 
1488856283.588233, 1488856283.588233, -1.042603, -0.036621, -0.257446, +22.230850, -7.182055, -2.118102 
1488856283.591980, 1488856283.591980, -1.184814, -0.036621, -0.257446, +22.230850, -7.182055, -2.118102 
1488856283.595924, 1488856283.595924, -1.184814, -0.036621, -0.257446, +18.355118, -7.456714, -2.987853 
1488856283.599855, 1488856283.599855, -1.184814, -0.036621, -0.257446, +18.355118, -7.456714, -2.987853 
1488856283.603794, 1488856283.603794, -1.184814, -0.036621, -0.257446, +18.355118, -7.456714, -2.987853 
1488856283.607739, 1488856283.607739, -1.184814, -0.005371, -0.283813, +19.072281, -10.813647, -2.408019 
1488856283.611678, 1488856283.611678, -1.130493, -0.028564, -0.283813, +19.072281, -10.813647, -2.408019 
1488856283.615632, 1488856283.615632, -1.130493, -0.028564, -0.283813, +19.072281, -10.813647, -2.408019 
1488856283.619592, 1488856283.619592, -1.130493, -0.028564, -0.283813, +23.070084, -15.040332, -1.385680 
1488856283.623547, 1488856283.623547, -1.130493, -0.028564, -0.283813, +23.070084, -15.040332, -1.385680 
1488856283.627499, 1488856283.627499, -1.130493, -0.028564, -0.406494, +23.070084, -15.040332, -2.255431 
1488856283.631604, 1488856283.631604, -1.023071, +0.020508, -0.406494, +25.038467, -16.138966, -2.255431 
1488856283.635826, 1488856283.635826, -1.023071, +0.020508, -0.406494, +25.038467, -16.138966, -2.255431 
1488856283.639574, 1488856283.639574, -1.023071, +0.020508, -0.406494, +24.153458, -16.886646, -4.025451 
1488856283.643339, 1488856283.643339, -1.023071, +0.020508, -0.406494, +24.153458, -16.886646, -4.025451 
1488856283.647287, 1488856283.647287, -1.023071, +0.020508, -0.399902, +24.153458, -16.886646, -4.025451 
1488856283.651229, 1488856283.651229, -1.001221, -0.006348, -0.399902, +22.139297, -16.398365, -5.871764 
1488856283.655192, 1488856283.655192, -1.001221, -0.006348, -0.399902, +22.139297, -16.398365, -5.871764 
1488856283.659131, 1488856283.659131, -1.001221, -0.006348, -0.399902, +22.139297, -16.398365, -5.871764 
1488856283.663085, 1488856283.663085, -1.001221, -0.006348, -0.399902, +23.466812, -17.512257, -7.611266 
1488856283.666835, 1488856283.666835, -1.001221, -0.006348, -0.399902, +23.466812, -17.512257, -7.611266 
1488856283.670698, 1488856283.670698, -1.028687, -0.067261, -0.380615, +23.466812, -17.512257, -7.611266 
1488856283.674468, 1488856283.674468, -1.028687, -0.067261, -0.380615, +26.350723, -19.495899, -10.067931 
1488856283.678217, 1488856283.678217, -1.028687, -0.067261, -0.380615, +26.350723, -19.495899, -10.067931 
1488856283.681968, 1488856283.681968, -1.028687, -0.067261, -0.380615, +26.350723, -23.402149, -11.883727 
1488856283.685891, 1488856283.685891, -1.028687, -0.067261, -0.380615, +29.371964, -21.876270, -11.883727 
1488856283.689654, 1488856283.689654, -0.948120, -0.047241, -0.485840, +29.371964, -21.876270, -11.883727 
1488856283.693578, 1488856283.693578, -0.948120, -0.047241, -0.485840, +31.279312, -21.449024, -13.195983 
1488856283.697531, 1488856283.697531, -0.948120, -0.047241, -0.485840, +31.279312, -21.449024, -13.195983 
1488856283.701486, 1488856283.701486, -0.948120, -0.047241, -0.485840, +31.279312, -21.449024, -13.195983 
1488856283.705434, 1488856283.705434, -0.948120, -0.047241, -0.485840, +32.835709, -20.625050, -17.239563 
1488856283.709385, 1488856283.709385, -0.996826, +0.007568, -0.437622, +32.835709, -20.625050, -17.239563 
1488856283.713342, 1488856283.713342, -0.996826, +0.007568, -0.437622, +32.835709, -20.625050, -17.239563 
1488856283.717299, 1488856283.717299, -0.996826, +0.007568, -0.437622, +34.346329, -22.898609, -21.466248 
1488856283.721239, 1488856283.721239, -0.996826, +0.007568, -0.437622, +34.346329, -22.898609, -21.466248 
1488856283.725205, 1488856283.725205, -0.996826, +0.007568, -0.437622, +34.346329, -22.898609, -25.372498 
1488856283.729145, 1488856283.729145, -0.998779, +0.034790, -0.351562, +32.088028, -22.089893, -25.647156 
1488856283.733097, 1488856283.733097, -0.998779, +0.034790, -0.351562, +32.088028, -22.089893, -25.647156 
1488856283.736858, 1488856283.736858, -0.998779, +0.034790, -0.351562, +32.088028, -25.050098, -30.804626 
1488856283.740609, 1488856283.740609, -0.998779, +0.034790, -0.351562, +31.340347, -25.050098, -30.804626 
1488856283.744397, 1488856283.744397, -0.998779, +0.034790, -0.351562, +31.340347, -25.050098, -30.804626 
1488856283.748140, 1488856283.748140, -1.051758, +0.019775, -0.287720, +25.862442, -26.301319, -35.046570 
1488856283.752024, 1488856283.752024, -1.051758, +0.019775, -0.287720, +25.862442, -26.301319, -35.046570 
1488856283.756174, 1488856283.756174, -1.051758, +0.019775, -0.287720, +25.862442, -26.301319, -35.046570 
1488856283.760118, 1488856283.760118, -1.051758, +0.019775, -0.287720, +23.497330, -28.880054, -38.586609 
1488856283.764083, 1488856283.764083, -1.051758, +0.019775, -0.287720, +23.497330, -28.880054, -38.586609 
1488856283.768026, 1488856283.768026, -1.170776, -0.006836, -0.259155, +23.497330, -28.880054, -38.586609 
1488856283.771977, 1488856283.771977, -1.170776, -0.006836, -0.259155, +18.400894, -29.841358, -42.004578 
1488856283.775935, 1488856283.775935, -1.170776, -0.006836, -0.259155, +18.400894, -29.841358, -42.004578 
1488856283.779877, 1488856283.779877, -1.170776, -0.006836, -0.259155, +18.400894, -29.841358, -44.735901 
1488856283.783830, 1488856283.783830, -1.170776, -0.006836, -0.259155, +17.485367, -31.733448, -44.735901 
1488856283.787581, 1488856283.787581, -1.265259, +0.033936, -0.166504, +17.485367, -31.733448, -44.735901 
1488856283.791337, 1488856283.791337, -1.265259, +0.033936, -0.166504, +17.485367, -34.495289, -47.848694 
1488856283.795093, 1488856283.795093, -1.265259, +0.033936, -0.166504, +16.661392, -34.495289, -47.848694 
1488856283.798851, 1488856283.798851, -1.265259, +0.033936, -0.166504, +16.661392, -34.495289, -47.848694 
1488856283.802604, 1488856283.802604, -1.265259, +0.033936, -0.166504, +14.158951, -40.095264, -52.121155 
1488856283.806490, 1488856283.806490, -1.265259, +0.183105, -0.196167, +14.158951, -40.095264, -52.121155 
1488856283.810239, 1488856283.810239, -1.292236, +0.183105, -0.196167, +14.158951, -40.095264, -52.121155 
1488856283.814192, 1488856283.814192, -1.292236, +0.183105, -0.196167, +7.200943, -44.825489, -58.331482 
1488856283.818230, 1488856283.818230, -1.292236, +0.183105, -0.196167, +7.200943, -44.825489, -58.331482 
1488856283.822151, 1488856283.822151, -1.292236, +0.183105, -0.196167, +7.200943, -44.825489, -58.331482 
1488856283.826092, 1488856283.826092, -1.292236, +0.183105, -0.398438, +0.120865, -49.632008, -65.121643 
1488856283.830010, 1488856283.830010, -1.351074, +0.143066, -0.398438, +0.120865, -49.632008, -65.121643 
1488856283.833948, 1488856283.833948, -1.351074, +0.143066, -0.398438, +0.120865, -49.632008, -65.121643 
1488856283.837866, 1488856283.837866, -1.351074, +0.143066, -0.398438, -6.348862, -53.172047, -71.576111 
1488856283.841794, 1488856283.841794, -1.351074, +0.143066, -0.398438, -6.348862, -53.172047, -71.576111 
1488856283.845722, 1488856283.845722, -1.351074, +0.143066, -0.525391, -6.348862, -57.887012, -77.801697 
1488856283.849645, 1488856283.849645, -1.416260, -0.014160, -0.525391, -3.175034, -57.887012, -77.801697 
1488856283.853599, 1488856283.853599, -1.416260, -0.014160, -0.525391, -3.175034, -57.887012, -77.801697 
1488856283.857345, 1488856283.857345, -1.416260, -0.014160, -0.525391, +2.196060, -62.296803, -81.768982 
1488856283.861097, 1488856283.861097, -1.416260, -0.014160, -0.525391, +2.196060, -62.296803, -81.768982 
1488856283.864999, 1488856283.864999, -1.416260, -0.014160, -0.525391, +2.196060, -62.296803, -81.768982 
1488856283.868943, 1488856283.868943, -1.512207, -0.082642, -0.647827, +13.838516, -67.301682, -84.378235 
1488856283.873414, 1488856283.873414, -1.512207, -0.082642, -0.647827, +13.838516, -67.301682, -84.378235 
1488856283.877373, 1488856283.877373, -1.512207, -0.082642, -0.647827, +13.838516, -67.301682, -84.378235 
1488856283.881323, 1488856283.881323, -1.512207, -0.082642, -0.647827, +24.977432, -71.650436, -87.368958 
1488856283.885283, 1488856283.885283, -1.512207, -0.082642, -0.710327, +24.977432, -71.650436, -87.368958 
1488856283.889241, 1488856283.889241, -1.586182, +0.067627, -0.688721, +24.977432, -74.610641, -89.703552 
1488856283.893231, 1488856283.893231, -1.586182, +0.067627, -0.688721, +34.575211, -74.610641, -89.703552 
1488856283.896983, 1488856283.896983, -1.586182, +0.067627, -0.688721, +34.575211, -74.610641, -89.703552 
1488856283.900735, 1488856283.900735, -1.586182, +0.067627, -0.688721, +43.867813, -78.104904, -92.114441 
1488856283.904498, 1488856283.904498, -1.586182, +0.067627, -0.688721, +43.867813, -78.104904, -92.114441 
1488856283.908261, 1488856283.908261, -1.740479, +0.247070, -0.492676, +43.867813, -78.104904, -92.114441 
1488856283.912641, 1488856283.912641, -1.740479, +0.247070, -0.492676, +56.166397, -83.521774, -93.335144 
1488856283.916479, 1488856283.916479, -1.740479, +0.247070, -0.492676, +56.166397, -83.521774, -93.335144 
1488856283.920229, 1488856283.920229, -1.740479, +0.247070, -0.492676, +56.166397, -83.521774, -93.335144 
1488856283.924031, 1488856283.924031, -1.740479, +0.247070, -0.492676, +62.422501, -90.128830, -98.156921 
1488856283.927772, 1488856283.927772, -1.960571, +0.543701, -0.610596, +62.422501, -90.128830, -98.156921 
1488856283.931510, 1488856283.931510, -1.960571, +0.543701, -0.610596, +62.422501, -90.128830, -98.156921 
1488856283.935262, 1488856283.935262, -1.960571, +0.543701, -0.610596, +65.214859, -95.057419, -105.069153 
1488856283.939006, 1488856283.939006, -1.960571, +0.543701, -0.610596, +65.214859, -95.057419, -105.069153 
1488856283.942748, 1488856283.942748, -1.960571, +0.543701, -0.610596, +65.214859, -95.057419, -105.069153 
1488856283.946541, 1488856283.946541, -1.904541, +1.002808, -0.943604, +74.263321, -101.069382, -110.013000 
1488856283.950286, 1488856283.950286, -1.904541, +1.002808, -0.943604, +74.263321, -101.069382, -110.013000 
1488856283.954187, 1488856283.954187, -1.904541, +1.002808, -0.943604, +74.263321, -101.069382, -110.150330 
1488856283.957931, 1488856283.957931, -1.904541, +1.002808, -0.943604, +90.651260, -103.510788, -110.150330 
1488856283.961674, 1488856283.961674, -1.904541, +1.002808, -0.943604, +90.651260, -103.510788, -110.150330 
1488856283.965646, 1488856283.965646, -1.904541, +0.662598, -0.912720, +102.370010, -102.747849, -109.036438 
1488856283.969401, 1488856283.969401, -1.903931, +0.662598, -0.912720, +102.263199, -102.747849, -109.036438 
1488856283.973136, 1488856283.973136, -1.903931, +0.662598, -0.912720, +102.263199, -102.747849, -109.036438 
1488856283.976884, 1488856283.976884, -1.903931, +0.662598, -0.912720, +103.743301, -101.267746, -109.341614 
1488856283.980632, 1488856283.980632, -1.903931, +0.662598, -0.912720, +103.743301, -101.267746, -109.341614 
1488856283.984513, 1488856283.984513, -1.903931, +0.662598, -0.881470, +103.743301, -101.267746, -109.341614 
1488856283.988458, 1488856283.988458, -1.957275, +0.209106, -0.900024, +93.077408, -103.281906, -110.989563 
1488856283.992406, 1488856283.992406, -1.957275, +0.209106, -0.900024, +93.077408, -103.281906, -110.989563 
1488856283.996203, 1488856283.996203, -1.957275, +0.209106, -0.900024, +93.077408, -103.281906, -110.989563 
1488856283.999951, 1488856283.999951, -1.957275, +0.209106, -0.900024, +71.638809, -107.645920, -111.325256 
1488856284.003745, 1488856284.003745, -1.957275, +0.209106, -0.900024, +71.638809, -107.645920, -111.325256 
1488856284.007691, 1488856284.007691, -1.629028, +0.261719, -0.950806, +71.638809, -107.645920, -111.325256 
1488856284.011702, 1488856284.011702, -1.629028, +0.261719, -0.950806, +40.968643, -107.981613, -107.678406 
1488856284.015698, 1488856284.015698, -1.629028, +0.261719, -0.950806, +40.968643, -107.981613, -107.678406 
1488856284.019759, 1488856284.019759, -1.629028, +0.261719, -0.950806, +40.968643, -100.169113, -102.704041 
1488856284.024503, 1488856284.024503, -1.629028, +0.261719, -0.617676, +9.062515, -103.373459, -102.704041 
1488856284.028250, 1488856284.028250, -1.091675, +0.166504, -0.617676, +9.062515, -103.373459, -102.704041 
1488856284.031991, 1488856284.031991, -1.091675, +0.166504, -0.617676, -18.952621, -97.117355, -97.271912 
1488856284.035810, 1488856284.035810, -1.091675, +0.166504, -0.617676, -18.952621, -97.117355, -97.271912 
1488856284.039551, 1488856284.039551, -1.091675, +0.166504, -0.617676, -18.952621, -97.117355, -97.271912 
1488856284.043311, 1488856284.043311, -1.091675, +0.166504, -0.617676, -44.877304, -82.484177, -87.872498 
1488856284.047045, 1488856284.047045, -0.643066, -0.825439, -0.139648, -44.877304, -82.484177, -87.872498 
1488856284.050781, 1488856284.050781, -0.643066, -0.825439, -0.139648, -44.877304, -82.484177, -87.872498 
1488856284.054530, 1488856284.054530, -0.643066, -0.825439, -0.139648, -35.798325, -44.764454, -67.929260 
1488856284.058268, 1488856284.058268, -0.643066, -0.825439, -0.139648, -35.798325, -44.764454, -67.929260 
1488856284.062013, 1488856284.062013, -0.643066, -0.825439, -0.139648, -35.798325, -44.764454, -67.929260 
1488856284.065797, 1488856284.065797, -0.909302, -0.661499, -0.259033, +1.478897, -21.128590, -33.627502 
1488856284.069542, 1488856284.069542, -0.909302, -0.661499, -0.259033, +1.478897, -21.128590, -33.627502 
1488856284.073424, 1488856284.073424, -0.909302, -0.661499, -0.259033, +1.478897, -21.128590, -33.627502 
1488856284.077170, 1488856284.077170, -0.909302, -0.661499, -0.259033, +42.738663, -18.427784, +4.809388 
1488856284.080917, 1488856284.080917, -0.909302, -0.661499, -0.259033, +42.738663, -18.427784, +4.809388 
1488856284.084841, 1488856284.084841, -0.315552, +0.259888, -0.490601, +42.738663, -18.427784, +31.619080 
1488856284.088786, 1488856284.088786, -0.327148, +0.259888, -0.490601, +55.021988, -15.574389, +31.619080 
1488856284.092728, 1488856284.092728, -0.327148, +0.259888, -0.490601, +55.021988, -15.574389, +31.619080 
1488856284.096532, 1488856284.096532, -0.327148, +0.259888, -0.490601, +58.668839, -10.630542, +52.477844 
1488856284.100277, 1488856284.100277, -0.327148, +0.259888, -0.490601, +58.668839, -10.630542, +52.477844 
1488856284.104123, 1488856284.104123, -0.327148, +0.666138, -0.075928, +58.668839, -10.630542, +52.477844 
1488856284.108068, 1488856284.108068, +0.055908, +0.675903, -0.075928, +50.688492, -0.941211, +70.406921 
1488856284.112122, 1488856284.112122, +0.055908, +0.675903, -0.075928, +50.688492, -0.941211, +70.406921 
1488856284.116106, 1488856284.116106, +0.055908, +0.675903, -0.075928, +50.688492, -0.941211, +70.406921 
1488856284.119858, 1488856284.119858, +0.055908, +0.675903, -0.075928, +23.268448, +17.064159, +86.565979 
1488856284.123819, 1488856284.123819, +0.055908, +0.675903, +0.083374, +23.268448, +17.064159, +86.565979 
1488856284.127698, 1488856284.127698, -0.074463, +0.431641, +0.083374, +23.268448, +17.064159, +102.190979 
1488856284.131870, 1488856284.131870, -0.074463, +0.431641, +0.083374, -15.885605, +38.380688, +100.924500 
1488856284.135705, 1488856284.135705, -0.074463, +0.431641, +0.083374, -15.885605, +38.380688, +100.924500 
1488856284.139456, 1488856284.139456, -0.074463, +0.431641, +0.083374, -15.885605, +38.380688, +113.513000 
1488856284.143255, 1488856284.143255, -0.074463, +0.431641, +0.083374, -49.256577, +60.002392, +113.513000 
1488856284.147007, 1488856284.147007, -0.292358, +0.102783, -0.062378, -49.256577, +60.002392, +113.513000 
1488856284.150755, 1488856284.150755, -0.292358, +0.102783, -0.062378, -64.881577, +79.579422, +125.872620 
1488856284.154512, 1488856284.154512, -0.292358, +0.102783, -0.062378, -68.330063, +79.579422, +125.872620 
1488856284.158257, 1488856284.158257, -0.292358, +0.102783, -0.062378, -68.330063, +79.579422, +125.872620 
1488856284.161996, 1488856284.161996, -0.292358, +0.102783, -0.062378, -76.127304, +94.929764, +137.103088 
1488856284.165805, 1488856284.165805, -0.299072, +0.060059, -0.132080, -76.127304, +94.929764, +137.103088 
1488856284.169548, 1488856284.169548, -0.299072, +0.060059, -0.132080, -76.127304, +94.929764, +137.103088 
1488856284.173419, 1488856284.173419, -0.299072, +0.060059, -0.132080, -77.683701, +107.350418, +149.676331 
1488856284.177168, 1488856284.177168, -0.299072, +0.060059, -0.132080, -77.683701, +107.350418, +149.676331 
1488856284.180918, 1488856284.180918, -0.299072, +0.060059, -0.132080, -77.683701, +107.350418, +149.676331 
1488856284.184774, 1488856284.184774, -0.309326, +0.103027, -0.260498, -73.167099, +119.420120, +163.851746 
1488856284.188519, 1488856284.188519, -0.309326, +0.103027, -0.260498, -73.167099, +119.420120, +163.851746 
1488856284.192261, 1488856284.192261, -0.309326, +0.103027, -0.260498, -73.167099, +119.420120, +163.851746 
1488856284.196013, 1488856284.196013, -0.309326, +0.103027, -0.260498, -75.349106, +132.039139, +179.797180 
1488856284.199755, 1488856284.199755, -0.309326, +0.103027, -0.260498, -75.349106, +132.039139, +179.797180 
1488856284.203548, 1488856284.203548, -0.309326, +0.317993, -0.306030, -75.349106, +132.039139, +179.797180 
1488856284.207502, 1488856284.207502, -0.488159, +0.317993, -0.306030, -83.298935, +142.994949, +194.552429 
1488856284.211452, 1488856284.211452, -0.488159, +0.317993, -0.306030, -83.298935, +142.994949, +194.552429 
1488856284.215407, 1488856284.215407, -0.488159, +0.317993, -0.306030, -83.298935, +142.994949, +204.180725 
1488856284.219521, 1488856284.219521, -0.488159, +0.317993, -0.306030, -85.129990, +153.889725, +204.180725 
1488856284.223457, 1488856284.223457, -0.488159, +0.655273, -0.278809, -85.129990, +153.889725, +204.180725 
1488856284.227343, 1488856284.227343, -0.678955, +0.655273, -0.278809, -101.090683, +163.670609, +212.634094 
1488856284.232056, 1488856284.232056, -0.678955, +0.655273, -0.278809, -101.090683, +163.670609, +212.634094 
1488856284.235834, 1488856284.235834, -0.678955, +0.655273, -0.278809, -101.090683, +163.670609, +212.634094 
1488856284.239585, 1488856284.239585, -0.678955, +0.655273, -0.278809, -129.349960, +173.817703, +217.288025 
1488856284.243328, 1488856284.243328, -0.678955, +0.412720, -0.095825, -129.349960, +173.817703, +217.288025 
1488856284.247077, 1488856284.247077, -1.035400, +0.412720, -0.095825, -129.349960, +173.817703, +217.288025 
1488856284.250818, 1488856284.250818, -1.035400, +0.412720, -0.095825, -147.965683, +180.668900, +221.026428 
1488856284.254636, 1488856284.254636, -1.035400, +0.412720, -0.095825, -147.965683, +180.668900, +221.026428 
1488856284.258493, 1488856284.258493, -1.035400, +0.412720, -0.095825, -147.965683, +180.668900, +221.026428 
1488856284.262241, 1488856284.262241, -1.035400, +0.412720, -0.095825, -127.747787, +175.801346, +230.532654 
1488856284.265993, 1488856284.265993, -1.599976, -0.319580, -0.455200, -127.747787, +175.801346, +230.532654 
1488856284.269735, 1488856284.269735, -1.599976, -0.319580, -0.455200, -127.747787, +175.801346, +246.157654 
1488856284.273624, 1488856284.273624, -1.599976, -0.319580, -0.455200, -90.241684, +158.131668, +246.920593 
1488856284.277372, 1488856284.277372, -1.599976, -0.319580, -0.455200, -90.241684, +158.131668, +246.920593 
1488856284.281123, 1488856284.281123, -1.599976, -0.319580, -0.455200, -90.241684, +142.506668, +265.719421 
1488856284.285100, 1488856284.285100, -1.860596, +0.111084, -0.244263, -78.400864, +140.919754, +265.719421 
1488856284.289050, 1488856284.289050, -1.860596, +0.111084, -0.244263, -78.400864, +140.919754, +265.719421 
1488856284.293018, 1488856284.293018, -1.860596, +0.111084, -0.244263, -94.193710, +140.034744, +280.795105 
1488856284.296771, 1488856284.296771, -1.860596, +0.111084, -0.244263, -94.193710, +140.034744, +280.795105 
1488856284.300524, 1488856284.300524, -1.860596, +0.111084, -0.244263, -94.193710, +140.034744, +280.795105 
1488856284.304349, 1488856284.304349, -1.837769, -0.132568, -0.348022, -108.384384, +148.716995, +290.713318 
1488856284.308301, 1488856284.308301, -1.837769, -0.132568, -0.348022, -108.384384, +148.716995, +290.713318 
1488856284.312249, 1488856284.312249, -1.837769, -0.132568, -0.348022, -108.384384, +148.716995, +290.713318 
1488856284.316214, 1488856284.316214, -1.837769, -0.132568, -0.348022, -117.631210, +150.914261, +292.513855 
1488856284.320158, 1488856284.320158, -1.837769, -0.132568, -0.348022, -117.631210, +150.914261, +292.513855 
1488856284.324123, 1488856284.324123, -1.899658, -0.049438, -0.542969, -117.631210, +150.914261, +284.701355 
1488856284.328081, 1488856284.328081, -1.899658, -0.049438, -0.542969, -125.016464, +147.603104, +285.113342 
1488856284.332025, 1488856284.332025, -1.899658, -0.049438, -0.542969, -125.016464, +147.603104, +285.113342 
1488856284.335984, 1488856284.335984, -1.899658, -0.049438, -0.542969, -132.706894, +149.266312, +275.301941 
1488856284.340114, 1488856284.340114, -1.899658, -0.049438, -0.542969, -132.706894, +149.266312, +275.301941 
1488856284.344445, 1488856284.344445, -2.389404, -0.260132, -0.646973, -132.706894, +149.266312, +275.301941 
1488856284.348206, 1488856284.348206, -2.389404, -0.260132, -0.646973, -142.823471, +155.186722, +264.025696 
1488856284.351957, 1488856284.351957, -2.389404, -0.260132, -0.646973, -142.823471, +155.186722, +264.025696 
1488856284.355912, 1488856284.355912, -2.389404, -0.260132, -0.646973, -142.823471, +155.186722, +264.025696 
1488856284.359858, 1488856284.359858, -2.389404, -0.260132, -0.646973, -135.773911, +151.616165, +250.048645 
1488856284.363812, 1488856284.363812, -2.962891, -1.160400, -0.540649, -135.773911, +151.616165, +250.048645 
1488856284.367759, 1488856284.367759, -2.962891, -1.160400, -0.540649, -135.773911, +151.616165, +238.329895 
1488856284.371701, 1488856284.371701, -2.962891, -1.160400, -0.540649, -106.446518, +134.190628, +237.444885 
1488856284.375561, 1488856284.375561, -2.962891, -1.160400, -0.540649, -106.446518, +134.190628, +237.444885 
1488856284.379310, 1488856284.379310, -2.962891, -1.160400, -0.540649, -106.446518, +106.846878, +218.478210 
1488856284.383071, 1488856284.383071, -2.074463, -2.062866, -0.351929, -56.168808, +106.846878, +218.478210 
1488856284.386818, 1488856284.386818, -2.074463, -2.062866, -0.351929, -56.168808, +106.846878, +218.478210 
1488856284.390572, 1488856284.390572, -2.074463, -2.062866, -0.351929, -5.555405, +92.015335, +172.732361 
1488856284.394446, 1488856284.394446, -2.074463, -2.062866, -0.351929, -5.555405, +92.015335, +172.732361 
1488856284.398202, 1488856284.398202, -2.074463, -2.062866, -0.351929, -5.555405, +92.015335, +172.732361 
1488856284.401948, 1488856284.401948, -2.074463, -2.142456, +0.661621, +25.542007, +76.954910, +112.399109 
1488856284.406023, 1488856284.406023, -2.156860, -2.142456, +0.661621, +25.542007, +76.954910, +112.399109 
1488856284.409956, 1488856284.409956, -2.156860, -2.142456, +0.661621, +25.542007, +76.954910, +112.399109 
1488856284.413888, 1488856284.413888, -2.156860, -2.142456, +0.661621, +33.583389, +37.648266, +42.620667 
1488856284.417811, 1488856284.417811, -2.156860, -2.142456, +0.661621, +33.583389, +37.648266, +42.620667 
1488856284.421738, 1488856284.421738, -2.156860, -1.454956, +0.457764, +33.583389, +37.648266, +42.620667 
1488856284.425650, 1488856284.425650, -1.865112, -1.445312, +0.457764, +17.760025, -11.607104, -29.324524 
1488856284.429539, 1488856284.429539, -1.865112, -1.445312, +0.457764, +17.760025, -11.607104, -29.324524 
1488856284.433519, 1488856284.433519, -1.865112, -1.445312, +0.457764, +17.760025, -11.607104, -90.832703 
1488856284.437263, 1488856284.437263, -1.865112, -1.445312, +0.457764, -1.939072, -41.819508, -90.832703 
1488856284.441014, 1488856284.441014, -1.865112, -1.445312, +0.457764, -1.939072, -41.819508, -90.832703 
1488856284.444936, 1488856284.444936, -1.965820, -1.381470, +0.371338, -16.206039, -64.219406, -141.430847 
1488856284.448878, 1488856284.448878, -1.965820, -1.381470, +0.371338, -16.206039, -64.219406, -141.430847 
1488856284.452824, 1488856284.452824, -1.965820, -1.381470, +0.371338, -16.206039, -64.219406, -141.430847 
1488856284.456777, 1488856284.456777, -1.965820, -1.381470, +0.371338, -21.394028, -75.114182, -179.974548 
1488856284.460984, 1488856284.460984, -1.965820, -1.381470, -1.316162, -21.394028, -75.114182, -179.974548 
1488856284.465339, 1488856284.465339, -1.321411, +1.173828, -1.324097, -21.394028, -75.114182, -179.974548 
1488856284.469282, 1488856284.469282, -1.321411, +1.173828, -1.324097, -59.739365, -68.949631, -184.109680 
1488856284.473271, 1488856284.473271, -1.321411, +1.173828, -1.324097, -59.739365, -68.949631, -184.109680 
1488856284.477212, 1488856284.477212, -1.321411, +1.173828, -1.324097, -59.739365, -60.557301, -128.537170 
1488856284.481158, 1488856284.481158, -1.321411, +1.173828, -0.979858, -111.802353, -60.557301, -128.537170 
1488856284.485017, 1488856284.485017, -0.287598, +3.555420, -0.979858, -111.802353, -60.557301, -128.537170 
1488856284.488770, 1488856284.488770, -0.287598, +3.555420, -0.979858, +78.413712, -23.310596, -26.410095 
1488856284.492520, 1488856284.492520, -0.287598, +3.555420, -0.979858, +78.413712, -23.310596, -26.410095 
1488856284.496312, 1488856284.496312, -0.287598, +3.555420, -0.979858, +78.413712, -23.310596, -26.410095 
1488856284.500065, 1488856284.500065, -0.287598, +3.555420, -0.979858, +115.599380, +20.085400, -38.189880 
1488856284.503866, 1488856284.503866, -3.369873, -1.815063, +1.767334, +115.599380, +20.085400, -38.189880 
1488856284.507617, 1488856284.507617, -3.369873, -1.815063, +1.767334, +115.599380, +20.085400, -38.189880 
1488856284.511361, 1488856284.511361, -3.369873, -1.815063, +1.767334, -92.606796, -32.175953, -147.747986 
1488856284.515153, 1488856284.515153, -3.369873, -1.815063, +1.767334, -92.606796, -32.175953, -147.747986 
1488856284.518901, 1488856284.518901, -3.369873, -1.815063, +1.767334, -92.606796, -32.175953, -147.747986 
1488856284.522656, 1488856284.522656, -1.398682, +0.383911, -0.821167, -143.510117, -32.908375, -176.815979 
1488856284.526664, 1488856284.526664, -1.398682, +0.383911, -0.821167, -143.510117, -32.908375, -176.815979 
1488856284.530613, 1488856284.530613, -1.398682, +0.383911, -0.821167, -143.510117, -32.908375, -176.815979 
1488856284.534502, 1488856284.534502, -1.398682, +0.383911, -0.821167, -138.245834, -23.524220, -163.556091 
1488856284.538254, 1488856284.538254, -1.398682, +0.383911, -0.821167, -138.245834, -23.524220, -163.556091 
1488856284.542005, 1488856284.542005, -1.138306, -0.982300, -0.773926, -138.245834, -23.524220, -144.024841 
1488856284.545942, 1488856284.545942, -1.138306, -0.982300, -0.773926, -76.340927, +2.980298, -142.941467 
1488856284.549894, 1488856284.549894, -1.138306, -0.982300, -0.773926, -76.340927, +2.980298, -142.941467 
1488856284.553958, 1488856284.553958, -1.138306, -0.982300, -0.773926, -35.004868, +8.366651, -140.072815 
1488856284.557903, 1488856284.557903, -1.138306, -0.982300, -0.773926, -35.004868, +8.366651, -140.072815 
1488856284.561848, 1488856284.561848, -1.359009, -0.623901, -0.506226, -35.004868, +8.366651, -140.072815 
1488856284.565800, 1488856284.565800, -1.359009, -0.623901, -0.506226, +1.799332, -16.749317, -131.726257 
1488856284.569748, 1488856284.569748, -1.359009, -0.623901, -0.506226, +1.799332, -16.749317, -131.726257 
1488856284.573699, 1488856284.573699, -1.359009, -0.623901, -0.506226, +1.799332, -16.749317, -131.726257 
1488856284.577643, 1488856284.577643, -1.359009, -0.623901, -0.506226, +47.926651, -34.296925, -109.173767 
1488856284.581796, 1488856284.581796, -0.768799, -0.662476, -0.767334, +47.926651, -34.296925, -109.173767 
1488856284.585758, 1488856284.585758, -0.768799, -0.662476, -0.767334, +47.926651, -34.296925, -74.978821 
1488856284.589510, 1488856284.589510, -0.768799, -0.662476, -0.767334, +97.761856, -41.163380, -74.978821 
1488856284.593309, 1488856284.593309, -0.768799, -0.662476, -0.767334, +97.761856, -41.163380, -74.978821 
1488856284.597261, 1488856284.597261, -0.768799, -0.662476, -0.767334, +117.293106, -26.621754, -40.005676 
1488856284.601209, 1488856284.601209, -1.297852, -0.201294, -0.077515, +117.445694, -26.621754, -40.005676 
1488856284.605176, 1488856284.605176, -1.297852, -0.201294, -0.077515, +117.445694, -26.621754, -40.005676 
1488856284.609128, 1488856284.609128, -1.297852, -0.201294, -0.077515, +119.124161, -22.196705, -25.113098 
1488856284.613085, 1488856284.613085, -1.297852, -0.201294, -0.077515, +119.124161, -22.196705, -25.113098 
1488856284.616843, 1488856284.616843, -1.297852, -0.201294, -0.077515, +119.124161, -22.196705, -25.113098 
1488856284.620592, 1488856284.620592, -1.297852, +0.793213, -0.182495, +97.243057, -23.661549, -27.401917 
1488856284.624351, 1488856284.624351, -1.372559, +0.793213, -0.182495, +97.243057, -23.661549, -27.401917 
1488856284.628103, 1488856284.628103, -1.372559, +0.793213, -0.182495, +97.243057, -23.661549, -27.401917 
1488856284.631862, 1488856284.631862, -1.372559, +0.793213, -0.182495, +42.555557, -18.290455, -39.364807 
1488856284.635714, 1488856284.635714, -1.372559, +0.793213, -0.182495, +42.555557, -18.290455, -39.364807 
1488856284.639467, 1488856284.639467, -1.372559, +0.793213, -0.182495, +42.555557, -18.290455, -39.364807 
1488856284.643394, 1488856284.643394, -1.181274, +0.317871, -0.208740, -9.949936, -13.499194, -51.907532 
1488856284.647335, 1488856284.647335, -1.181274, +0.317871, -0.208740, -9.949936, -13.499194, -51.907532 
1488856284.651279, 1488856284.651279, -1.181274, +0.317871, -0.208740, -9.949936, -13.499194, -54.852478 
1488856284.655225, 1488856284.655225, -1.181274, +0.317871, -0.208740, -27.741684, -9.898120, -54.852478 
1488856284.659176, 1488856284.659176, -1.181274, +0.317871, -0.208740, -27.741684, -9.898120, -54.852478 
1488856284.663125, 1488856284.663125, -1.164062, -0.281128, -0.429199, -17.716660, -10.798388, -44.156067 
1488856284.667081, 1488856284.667081, -1.164062, -0.281128, -0.429199, -17.716660, -10.798388, -44.156067 
1488856284.671031, 1488856284.671031, -1.164062, -0.281128, -0.429199, -17.716660, -10.798388, -44.156067 
1488856284.674899, 1488856284.674899, -1.164062, -0.281128, -0.429199, +11.549698, -10.706836, -25.891296 
1488856284.678650, 1488856284.678650, -1.164062, -0.281128, -0.429199, +11.549698, -10.706836, -25.891296 
1488856284.682403, 1488856284.682403, -1.124634, -0.408203, -0.500244, +11.549698, -10.706836, -25.891296 
1488856284.686360, 1488856284.686360, -1.124634, -0.408203, -0.500244, +44.462906, -11.469775, -10.464660 
1488856284.690309, 1488856284.690309, -1.124634, -0.408203, -0.500244, +44.462906, -11.469775, -10.464660 
1488856284.694307, 1488856284.694307, -1.124634, -0.408203, -0.500244, +44.462906, -11.469775, -2.652160 
1488856284.698253, 1488856284.698253, -1.124634, -0.408203, -0.500244, +61.491714, -13.285571, -2.026549 
1488856284.702863, 1488856284.702863, -0.989990, +0.092529, -0.495728, +61.491714, -13.285571, -2.026549 
1488856284.706824, 1488856284.706824, -0.989990, +0.092529, -0.495728, +58.027969, -12.324267, -1.385680 
1488856284.710766, 1488856284.710766, -0.989990, +0.092529, -0.495728, +58.027969, -12.324267, -1.385680 
1488856284.714725, 1488856284.714725, -0.989990, +0.092529, -0.495728, +58.027969, -12.324267, -1.385680 
1488856284.718675, 1488856284.718675, -0.989990, +0.092529, -0.495728, +43.867813, -10.447436, -4.391662 
1488856284.722620, 1488856284.722620, -1.090942, +0.232056, -0.250977, +43.867813, -10.447436, -4.391662 
1488856284.726401, 1488856284.726401, -1.090942, +0.232056, -0.250977, +43.867813, -10.447436, -4.391662 
1488856284.730147, 1488856284.730147, -1.090942, +0.232056, -0.250977, +27.800308, -11.134082, -7.443419 
1488856284.733905, 1488856284.733905, -1.090942, +0.232056, -0.250977, +27.800308, -11.134082, -7.443419 
1488856284.737651, 1488856284.737651, -1.090942, +0.232056, -0.250977, +27.800308, -11.134082, -7.443419 
