Calculating the offsets...
timestamp_before, timestamp_after, accel_x, accel_y, accel_z, gyro_x, gyro_y, gyro_z
1488856319.605939, 1488856319.605939, -1.136841, +0.154053, -0.276001, -9.347144, -43.146114, -71.510391 
1488856319.618298, 1488856319.618298, -1.136841, +0.154053, -0.276001, -9.347144, -47.052364, -76.698380 
1488856319.622361, 1488856319.622361, -1.255249, -0.049683, -0.451416, -7.455054, -45.389156, -76.698380 
1488856319.626311, 1488856319.626311, -1.255249, -0.049683, -0.451416, -7.455054, -45.389156, -76.698380 
1488856319.630251, 1488856319.630251, -1.255249, -0.049683, -0.451416, +1.578149, -49.219112, -80.284195 
1488856319.634208, 1488856319.634208, -1.255249, -0.049683, -0.451416, +1.578149, -49.219112, -80.284195 
1488856319.638149, 1488856319.638149, -1.255249, -0.049683, -0.451416, +1.578149, -49.219112, -80.284195 
1488856319.642096, 1488856319.642096, -1.417969, -0.068726, -0.420288, +9.390649, -53.812008, -84.648209 
1488856319.646084, 1488856319.646084, -1.417969, -0.068726, -0.420288, +9.390649, -53.812008, -84.648209 
1488856319.650023, 1488856319.650023, -1.417969, -0.068726, -0.420288, +9.390649, -53.812008, -84.648209 
1488856319.653947, 1488856319.653947, -1.417969, -0.068726, -0.420288, +15.662011, -60.464840, -89.241104 
1488856319.657699, 1488856319.657699, -1.417969, -0.068726, -0.420288, +15.662011, -60.464840, -89.241104 
1488856319.661451, 1488856319.661451, -1.491699, +0.027222, -0.503418, +15.662011, -60.464840, -93.147354 
1488856319.665358, 1488856319.665358, -1.491699, +0.027222, -0.503418, +18.774803, -67.728020, -94.062881 
1488856319.669114, 1488856319.669114, -1.491699, +0.027222, -0.503418, +18.774803, -67.728020, -94.062881 
1488856319.672872, 1488856319.672872, -1.491699, +0.027222, -0.503418, +18.774803, -74.930168, -99.998550 
1488856319.676921, 1488856319.676921, -1.491699, +0.027222, -0.503418, +20.026024, -74.930168, -99.998550 
1488856319.680843, 1488856319.680843, -1.519287, -0.034546, -0.720459, +20.026024, -74.930168, -99.998550 
1488856319.684769, 1488856319.684769, -1.519287, -0.034546, -0.720459, +25.458153, -80.575920, -105.690079 
1488856319.688690, 1488856319.688690, -1.519287, -0.034546, -0.720459, +25.458153, -80.575920, -105.690079 
1488856319.692609, 1488856319.692609, -1.519287, -0.034546, -0.720459, +25.458153, -80.575920, -105.690079 
1488856319.696514, 1488856319.696514, -1.519287, -0.034546, -0.720459, +35.666283, -83.536125, -111.473160 
1488856319.700499, 1488856319.700499, -1.663818, +0.001465, -0.810303, +35.666283, -83.536125, -111.473160 
1488856319.704430, 1488856319.704430, -1.663818, +0.001465, -0.810303, +35.666283, -83.536125, -111.473160 
1488856319.708188, 1488856319.708188, -1.663818, +0.001465, -0.810303, +54.144676, -86.114861, -115.333633 
1488856319.711939, 1488856319.711939, -1.663818, +0.001465, -0.810303, +54.144676, -86.114861, -115.333633 
1488856319.715841, 1488856319.715841, -1.663818, +0.001465, -0.810303, +54.144676, -86.114861, -119.239883 
1488856319.719794, 1488856319.719794, -1.910889, +0.303467, -0.837036, +72.348412, -91.485954, -116.951065 
1488856319.723747, 1488856319.723747, -1.910889, +0.303467, -0.837036, +72.348412, -91.485954, -116.951065 
1488856319.727697, 1488856319.727697, -1.910889, +0.303467, -0.837036, +80.160912, -93.210197, -124.076920 
1488856319.731839, 1488856319.731839, -1.910889, +0.303467, -0.837036, +80.359276, -93.210197, -124.076920 
1488856319.736441, 1488856319.736441, -1.910889, +0.303467, -0.837036, +80.359276, -93.210197, -124.076920 
1488856319.740185, 1488856319.740185, -2.128296, +0.875977, -1.139771, +84.448631, -93.454338, -132.682877 
1488856319.744108, 1488856319.744108, -2.128296, +0.875977, -1.139771, +84.448631, -93.454338, -132.682877 
1488856319.747851, 1488856319.747851, -2.128296, +0.875977, -1.139771, +84.448631, -93.454338, -132.682877 
1488856319.751585, 1488856319.751585, -2.128296, +0.875977, -1.139771, +97.342308, -95.178581, -132.499771 
1488856319.755378, 1488856319.755378, -2.128296, +0.875977, -1.139771, +97.342308, -95.178581, -132.499771 
1488856319.759117, 1488856319.759117, -2.161987, +0.480591, -0.840820, +97.342308, -95.178581, -132.499771 
1488856319.763242, 1488856319.763242, -2.161987, +0.480591, -0.840820, +123.038109, -95.727898, -122.520523 
1488856319.766986, 1488856319.766986, -2.161987, +0.480591, -0.840820, +123.038109, -95.727898, -122.520523 
1488856319.770757, 1488856319.770757, -2.161987, +0.480591, -0.840820, +123.038109, -95.727898, -110.832291 
1488856319.774528, 1488856319.774528, -2.161987, +0.480591, -0.840820, +152.182404, -97.681023, -110.832291 
1488856319.778269, 1488856319.778269, -2.161987, +0.480591, -0.718506, +152.182404, -97.681023, -110.832291 
1488856319.782013, 1488856319.782013, -1.912476, +0.255371, -0.718506, +167.807404, -101.861931, -97.007828 
1488856319.785927, 1488856319.785927, -1.912476, +0.255371, -0.718506, +170.172516, -101.861931, -97.007828 
1488856319.789718, 1488856319.789718, -1.912476, +0.255371, -0.718506, +170.172516, -101.861931, -97.007828 
1488856319.793599, 1488856319.793599, -1.912476, +0.255371, -0.718506, +166.937653, -109.018303, -85.029678 
1488856319.797353, 1488856319.797353, -1.912476, +0.255371, -0.718506, +166.937653, -109.018303, -85.029678 
1488856319.801142, 1488856319.801142, -1.411255, +0.338501, -0.467896, +166.937653, -109.018303, -85.029678 
1488856319.805108, 1488856319.805108, -1.411255, +0.338501, -0.467896, +122.107323, -112.207390, -86.296158 
1488856319.809179, 1488856319.809179, -1.411255, +0.338501, -0.467896, +122.107323, -112.207390, -86.296158 
1488856319.813133, 1488856319.813133, -1.411255, +0.338501, -0.467896, +122.107323, -112.207390, -86.296158 
1488856319.817084, 1488856319.817084, -1.411255, +0.338501, -0.467896, +61.743553, -100.458122, -91.163712 
1488856319.821030, 1488856319.821030, -1.048584, +0.145508, -0.461182, +61.743553, -100.458122, -91.163712 
1488856319.824993, 1488856319.824993, -1.048584, +0.145508, -0.461182, +61.743553, -100.458122, -95.390396 
1488856319.829014, 1488856319.829014, -1.048584, +0.145508, -0.461182, +12.579736, -78.241325, -95.390396 
1488856319.832768, 1488856319.832768, -1.048584, +0.145508, -0.461182, +12.579736, -78.241325, -95.390396 
1488856319.836834, 1488856319.836834, -1.048584, +0.145508, -0.461182, -14.840308, -49.798946, -96.595840 
1488856319.841470, 1488856319.841470, -0.801025, -0.904663, -0.163818, -14.840308, -49.798946, -96.595840 
1488856319.845304, 1488856319.845304, -0.801025, -0.904663, -0.163818, -14.840308, -49.798946, -96.595840 
1488856319.849051, 1488856319.849051, -0.801025, -0.904663, -0.163818, +7.590112, -18.594723, -76.362686 
1488856319.852803, 1488856319.852803, -0.801025, -0.904663, -0.163818, +7.590112, -18.594723, -76.362686 
1488856319.857267, 1488856319.857267, -0.801025, -0.904663, -0.163818, +7.590112, -18.594723, -76.362686 
1488856319.861012, 1488856319.861012, -0.864746, -0.524902, -0.078491, +51.169212, -4.297237, -48.454361 
1488856319.865008, 1488856319.865008, -0.864746, -0.524902, -0.078491, +51.169212, -4.297237, -48.454361 
1488856319.868959, 1488856319.868959, -0.864746, -0.524902, -0.078491, +51.169212, +2.798100, -23.094252 
1488856319.872909, 1488856319.872909, -0.864746, -0.524902, -0.078491, +72.775658, +2.798100, -23.094252 
1488856319.876704, 1488856319.876704, -0.864746, -0.524902, -0.078491, +72.775658, +2.798100, -23.094252 
1488856319.880449, 1488856319.880449, -0.253540, +0.571289, -0.310425, +60.065086, +12.014408, -4.356459 
1488856319.884304, 1488856319.884304, -0.253540, +0.571289, -0.310425, +60.065086, +12.014408, -4.356459 
1488856319.888250, 1488856319.888250, -0.253540, +0.571289, -0.310425, +60.065086, +12.014408, -4.356459 
1488856319.892197, 1488856319.892197, -0.253540, +0.571289, -0.310425, +34.659203, +19.323368, +10.902330 
1488856319.896001, 1488856319.896001, -0.253540, +0.571289, -0.310425, +34.659203, +19.323368, +10.902330 
1488856319.899753, 1488856319.899753, +0.097534, +0.911011, -0.003418, +34.659203, +19.323368, +10.902330 
1488856319.903703, 1488856319.903703, +0.097534, +0.911011, -0.003418, -1.855079, +32.567997, +24.970934 
1488856319.907453, 1488856319.907453, +0.097534, +0.911011, -0.003418, -1.855079, +32.567997, +24.970934 
1488856319.911328, 1488856319.911328, +0.097534, +0.911011, -0.003418, -1.855079, +32.567997, +24.970934 
1488856319.915297, 1488856319.915297, +0.097534, +0.911011, -0.003418, -43.618385, +52.953739, +36.979599 
1488856319.919243, 1488856319.919243, -0.067871, +0.323730, -0.038086, -43.618385, +52.953739, +36.979599 
1488856319.923238, 1488856319.923238, -0.067871, +0.323730, -0.038086, -43.618385, +72.484993, +48.133774 
1488856319.927190, 1488856319.927190, -0.067871, +0.323730, -0.038086, -67.284767, +73.019051, +48.133774 
1488856319.931133, 1488856319.931133, -0.067871, +0.323730, -0.038086, -67.284767, +73.019051, +48.133774 
1488856319.935089, 1488856319.935089, -0.067871, +0.323730, -0.038086, -72.167580, +90.215706, +63.026352 
1488856319.939028, 1488856319.939028, -0.373291, +0.008667, -0.025024, -72.167580, +90.215706, +63.026352 
1488856319.943010, 1488856319.943010, -0.373291, +0.008667, -0.025024, -72.167580, +90.215706, +63.026352 
1488856319.946759, 1488856319.946759, -0.373291, +0.008667, -0.025024, -64.477150, +102.788948, +80.634995 
1488856319.950514, 1488856319.950514, -0.373291, +0.008667, -0.025024, -64.477150, +102.788948, +80.634995 
1488856319.954392, 1488856319.954392, -0.373291, +0.008667, -0.025024, -64.477150, +102.788948, +80.634995 
1488856319.958148, 1488856319.958148, -0.509155, +0.047974, +0.011719, -53.750221, +109.533333, +99.006577 
1488856319.961898, 1488856319.961898, -0.509155, +0.047974, +0.011719, -53.750221, +109.533333, +99.006577 
1488856319.965874, 1488856319.965874, -0.509155, +0.047974, +0.011719, -53.750221, +109.533333, +99.006577 
1488856319.969889, 1488856319.969889, -0.509155, +0.047974, +0.011719, -45.190041, +113.729500, +117.164536 
1488856319.973888, 1488856319.973888, -0.509155, +0.047974, +0.011719, -45.190041, +113.729500, +117.164536 
1488856319.977833, 1488856319.977833, -0.511475, +0.179810, -0.030029, -45.190041, +117.635750, +134.651108 
1488856319.981781, 1488856319.981781, -0.511475, +0.179810, -0.030029, -39.971535, +117.574715, +134.651108 
1488856319.985743, 1488856319.985743, -0.511475, +0.179810, -0.030029, -39.971535, +117.574715, +134.651108 
1488856319.989691, 1488856319.989691, -0.511475, +0.179810, -0.030029, -38.201515, +121.480965, +149.986191 
1488856319.993679, 1488856319.993679, -0.511475, +0.179810, -0.030029, -38.201515, +121.480965, +149.986191 
1488856319.997628, 1488856319.997628, -0.508789, +0.333984, -0.059814, -38.201515, +121.480965, +149.986191 
1488856320.001568, 1488856320.001568, -0.508789, +0.333984, -0.059814, -40.688698, +127.660774, +164.085312 
1488856320.005402, 1488856320.005402, -0.508789, +0.333984, -0.059814, -40.688698, +127.660774, +164.085312 
1488856320.009156, 1488856320.009156, -0.508789, +0.333984, -0.059814, -40.688698, +127.660774, +164.085312 
1488856320.012903, 1488856320.012903, -0.508789, +0.333984, -0.059814, -44.793312, +135.473267, +177.589340 
1488856320.016689, 1488856320.016689, -0.508789, +0.409180, -0.102417, -44.793312, +135.473267, +177.589340 
1488856320.020439, 1488856320.020439, -0.679688, +0.409180, -0.102417, -44.793312, +135.473267, +177.589340 
1488856320.024355, 1488856320.024355, -0.679688, +0.409180, -0.102417, -52.849953, +142.843262, +189.567490 
1488856320.028107, 1488856320.028107, -0.679688, +0.409180, -0.102417, -52.849953, +142.843262, +189.567490 
1488856320.031846, 1488856320.031846, -0.679688, +0.409180, -0.102417, -52.849953, +142.843262, +201.408310 
1488856320.035655, 1488856320.035655, -0.679688, +0.409180, -0.102417, -61.989967, +147.848145, +201.408310 
1488856320.039394, 1488856320.039394, -0.850708, +0.378296, -0.183105, -61.989967, +147.848145, +201.408310 
1488856320.043142, 1488856320.043142, -0.850708, +0.378296, -0.183105, -61.989967, +151.754395, +213.035507 
1488856320.046884, 1488856320.046884, -0.850708, +0.378296, -0.183105, -67.391579, +152.761475, +213.035507 
1488856320.050634, 1488856320.050634, -0.850708, +0.378296, -0.183105, -67.391579, +152.761475, +213.035507 
1488856320.054435, 1488856320.054435, -0.850708, +0.378296, -0.183105, -72.549049, +158.224121, +225.593491 
1488856320.058283, 1488856320.058283, -1.024414, +0.361938, -0.205933, -72.549049, +158.224121, +225.593491 
1488856320.062031, 1488856320.062031, -1.024414, +0.361938, -0.205933, -72.549049, +158.224121, +225.593491 
1488856320.065786, 1488856320.065786, -1.024414, +0.361938, -0.205933, -78.973000, +163.534180, +238.105698 
1488856320.069648, 1488856320.069648, -1.024414, +0.361938, -0.205933, -78.973000, +163.534180, +238.105698 
1488856320.073463, 1488856320.073463, -1.024414, +0.361938, -0.205933, -78.973000, +163.534180, +238.105698 
1488856320.077350, 1488856320.077350, -1.257690, +0.352539, -0.261841, -86.251442, +167.882935, +249.397202 
1488856320.081279, 1488856320.081279, -1.257690, +0.352539, -0.261841, -86.251442, +167.882935, +249.397202 
1488856320.085614, 1488856320.085614, -1.257690, +0.352539, -0.261841, -86.251442, +167.882935, +249.397202 
1488856320.089564, 1488856320.089564, -1.257690, +0.352539, -0.261841, -89.242165, +171.453491, +261.222778 
1488856320.093503, 1488856320.093503, -1.257690, +0.352539, -0.261841, -89.242165, +171.453491, +261.222778 
1488856320.097265, 1488856320.097265, -1.773804, +0.363159, -0.349731, -89.242165, +171.453491, +272.407471 
1488856320.101014, 1488856320.101014, -1.773804, +0.363159, -0.349731, -95.589821, +174.078003, +272.407471 
1488856320.104906, 1488856320.104906, -1.773804, +0.363159, -0.349731, -95.589821, +174.078003, +272.407471 
1488856320.108851, 1488856320.108851, -1.773804, +0.363159, -0.349731, -111.214821, +176.168457, +280.784546 
1488856320.112802, 1488856320.112802, -1.773804, +0.363159, -0.349731, -110.634987, +176.168457, +280.784546 
1488856320.116575, 1488856320.116575, -2.361694, +0.046631, -0.536743, -110.634987, +176.168457, +280.784546 
1488856320.120330, 1488856320.120330, -2.361694, +0.046631, -0.536743, -121.926491, +176.488892, +286.521851 
1488856320.124102, 1488856320.124102, -2.361694, +0.046631, -0.536743, -121.926491, +176.488892, +286.521851 
1488856320.127856, 1488856320.127856, -2.361694, +0.046631, -0.536743, -121.926491, +176.488892, +286.521851 
1488856320.131614, 1488856320.131614, -2.361694, +0.046631, -0.536743, -119.851295, +174.734131, +287.437378 
1488856320.135520, 1488856320.135520, -2.361694, +0.046631, -0.494263, -119.851295, +174.734131, +287.437378 
1488856320.139277, 1488856320.139277, -3.120728, -0.575439, -0.494263, -119.851295, +174.734131, +287.437378 
1488856320.143117, 1488856320.143117, -3.120728, -0.575439, -0.494263, -110.528175, +165.349976, +276.496826 
1488856320.146865, 1488856320.146865, -3.120728, -0.575439, -0.494263, -110.528175, +165.349976, +276.496826 
1488856320.150711, 1488856320.150711, -3.120728, -0.575439, -0.494263, -110.528175, +165.349976, +276.496826 
1488856320.154609, 1488856320.154609, -3.120728, -0.575439, -0.494263, -101.296608, +141.866699, +254.539413 
1488856320.159110, 1488856320.159110, -2.657349, -0.836426, -0.221924, -101.296608, +141.866699, +254.539413 
1488856320.162856, 1488856320.162856, -2.657349, -0.836426, -0.221924, -101.296608, +118.429207, +221.702499 
1488856320.166685, 1488856320.166685, -2.657349, -0.836426, -0.221924, -93.865578, +118.108772, +221.702499 
1488856320.170434, 1488856320.170434, -2.657349, -0.836426, -0.221924, -93.865578, +118.108772, +221.702499 
1488856320.174225, 1488856320.174225, -2.657349, -0.836426, -0.221924, -78.240578, +112.875008, +183.982773 
1488856320.177974, 1488856320.177974, -2.195923, -1.677124, -0.276855, -77.950661, +112.875008, +183.982773 
1488856320.181719, 1488856320.181719, -2.195923, -1.677124, -0.276855, -77.950661, +112.875008, +183.982773 
1488856320.185476, 1488856320.185476, -2.195923, -1.677124, -0.276855, -75.951759, +104.650520, +131.874008 
1488856320.189216, 1488856320.189216, -2.195923, -1.677124, -0.276855, -75.951759, +104.650520, +131.874008 
1488856320.193014, 1488856320.193014, -2.195923, -1.677124, -0.276855, -75.951759, +104.650520, +131.874008 
1488856320.196759, 1488856320.196759, -2.180420, -2.320923, +0.881592, -79.415504, +67.449593, +61.561508 
1488856320.200608, 1488856320.200608, -2.180420, -2.320923, +0.881592, -79.415504, +67.449593, +61.561508 
1488856320.204399, 1488856320.204399, -2.180420, -2.320923, +0.881592, -79.415504, +67.449593, +61.561508 
1488856320.208134, 1488856320.208134, -2.180420, -2.320923, +0.881592, -41.268532, +22.314091, -8.735731 
1488856320.211882, 1488856320.211882, -2.180420, -2.320923, +0.881592, -41.268532, +22.314091, -8.735731 
1488856320.215708, 1488856320.215708, -2.078247, -2.029419, +0.633545, -41.268532, +22.314091, -8.735731 
1488856320.219456, 1488856320.219456, -2.078247, -2.029419, +0.633545, -29.534523, -24.148922, -76.286392 
1488856320.223246, 1488856320.223246, -2.078247, -2.029419, +0.633545, -29.534523, -24.148922, -76.286392 
1488856320.226983, 1488856320.226983, -2.078247, -2.029419, +0.633545, -29.534523, -24.148922, -76.286392 
1488856320.230720, 1488856320.230720, -2.078247, -2.029419, +0.633545, -26.162331, -59.595089, -131.630020 
1488856320.234550, 1488856320.234550, -2.078247, -2.029419, -0.134277, -26.162331, -59.595089, -131.630020 
1488856320.238494, 1488856320.238494, -1.957886, -1.219604, -0.134277, -26.162331, -59.595089, -131.630020 
1488856320.242431, 1488856320.242431, -1.957886, -1.219604, -0.134277, -24.773781, -75.143791, -173.255997 
1488856320.246230, 1488856320.246230, -1.957886, -1.219604, -0.134277, -24.773781, -75.143791, -173.255997 
1488856320.249982, 1488856320.249982, -1.957886, -1.219604, -0.134277, -24.773781, -75.143791, -182.945328 
1488856320.253794, 1488856320.253794, -1.957886, -1.219604, -0.134277, -33.745949, -76.578117, -182.945328 
1488856320.257739, 1488856320.257739, -0.855469, +2.688721, -2.075562, -33.745949, -76.578117, -182.945328 
1488856320.261687, 1488856320.261687, -0.855469, +2.688721, -2.075562, -96.306984, -75.433708, -148.918228 
1488856320.265637, 1488856320.265637, -0.855469, +2.688721, -2.075562, -96.306984, -75.433708, -148.918228 
1488856320.269638, 1488856320.269638, -0.855469, +2.688721, -2.075562, -96.306984, -75.433708, -148.918228 
1488856320.273994, 1488856320.273994, -0.855469, +2.688721, -0.231812, +48.743065, -40.353756, -58.860855 
1488856320.277946, 1488856320.277946, -1.373901, +1.205811, -0.224121, +48.743065, -40.353756, -58.860855 
1488856320.281892, 1488856320.281892, -1.373901, +1.205811, -0.224121, +48.743065, -40.353756, -58.860855 
1488856320.285894, 1488856320.285894, -1.373901, +1.205811, -0.224121, +186.270538, -8.478146, -35.835342 
1488856320.289836, 1488856320.289836, -1.373901, +1.205811, -0.224121, +186.270538, -8.478146, -35.835342 
1488856320.293757, 1488856320.293757, -1.373901, +1.205811, -0.224121, +186.270538, -43.909054, -126.380997 
1488856320.297507, 1488856320.297507, -3.336914, -1.780640, +1.073730, +21.216209, -43.909054, -126.380997 
1488856320.301258, 1488856320.301258, -3.336914, -1.780640, +1.073730, +21.216209, -43.909054, -126.380997 
1488856320.305029, 1488856320.305029, -3.336914, -1.780640, +1.073730, -81.582253, -50.333004, -197.502213 
1488856320.308784, 1488856320.308784, -3.336914, -1.780640, +1.073730, -81.582253, -50.333004, -197.502213 
1488856320.312537, 1488856320.312537, -3.336914, -1.780640, +1.073730, -81.582253, -50.333004, -197.502213 
1488856320.316332, 1488856320.316332, -1.420288, +0.584351, -0.741821, -75.158302, -49.982052, -200.660782 
1488856320.320088, 1488856320.320088, -1.420288, +0.584351, -0.741821, -75.158302, -49.982052, -200.660782 
1488856320.323989, 1488856320.323989, -1.420288, +0.584351, -0.741821, -75.158302, -49.982052, -200.660782 
1488856320.327745, 1488856320.327745, -1.420288, +0.584351, -0.741821, -25.155251, -48.196774, -183.662491 
1488856320.331494, 1488856320.331494, -1.420288, +0.584351, -0.741821, -25.155251, -48.196774, -183.662491 
1488856320.335479, 1488856320.335479, -0.725464, -0.773560, -0.001465, -25.155251, -48.196774, -183.662491 
1488856320.339426, 1488856320.339426, -0.725464, -0.773560, -0.001465, +28.219994, -40.048580, -160.163956 
1488856320.343381, 1488856320.343381, -0.725464, -0.773560, -0.001465, +28.219994, -40.048580, -160.163956 
1488856320.347244, 1488856320.347244, -0.725464, -0.773560, -0.001465, +28.219994, -40.048580, -160.163956 
1488856320.350990, 1488856320.350990, -0.725464, -0.773560, -0.001465, +65.192039, -44.794064, -135.612564 
1488856320.354839, 1488856320.354839, -0.725098, -0.264404, -0.680542, +65.192039, -44.794064, -135.612564 
1488856320.358785, 1488856320.358785, -0.725098, -0.264404, -0.680542, +65.192039, -44.794064, -114.631729 
1488856320.362738, 1488856320.362738, -0.725098, -0.264404, -0.680542, +75.506981, -41.315060, -114.631729 
1488856320.366729, 1488856320.366729, -0.725098, -0.264404, -0.680542, +75.506981, -41.315060, -114.631729 
1488856320.370683, 1488856320.370683, -0.725098, -0.264404, -0.680542, +76.651390, -41.437130, -99.174576 
1488856320.374590, 1488856320.374590, -1.045044, -0.082031, -0.427612, +76.651390, -41.437130, -99.174576 
1488856320.378337, 1488856320.378337, -1.045044, -0.082031, -0.427612, +76.651390, -41.437130, -99.174576 
1488856320.382088, 1488856320.382088, -1.045044, -0.082031, -0.427612, +61.178978, -39.712887, -89.668350 
1488856320.385997, 1488856320.385997, -1.045044, -0.082031, -0.427612, +61.178978, -39.712887, -89.668350 
1488856320.390177, 1488856320.390177, -1.045044, -0.082031, -0.427612, +61.178978, -39.712887, -89.668350 
1488856320.394406, 1488856320.394406, -1.299927, -0.183228, -0.149780, +41.495140, -36.096554, -81.626968 
1488856320.398167, 1488856320.398167, -1.299927, -0.183228, -0.149780, +41.495140, -36.096554, -81.626968 
1488856320.401924, 1488856320.401924, -1.299927, -0.183228, -0.149780, +41.495140, -36.096554, -73.814468 
1488856320.405812, 1488856320.405812, -1.299927, -0.183228, -0.149780, +25.412376, -36.172848, -76.515274 
1488856320.409748, 1488856320.409748, -1.299927, -0.183228, -0.149780, +25.412376, -36.172848, -76.515274 
1488856320.413688, 1488856320.413688, -1.299927, +0.144775, -0.344116, +21.506126, -33.273678, -73.143082 
1488856320.417614, 1488856320.417614, -1.388794, +0.144775, -0.344116, +20.026024, -33.273678, -73.143082 
1488856320.421539, 1488856320.421539, -1.388794, +0.144775, -0.344116, +20.026024, -33.273678, -73.143082 
1488856320.425370, 1488856320.425370, -1.388794, +0.144775, -0.344116, +15.250024, -29.977779, -68.473892 
1488856320.429125, 1488856320.429125, -1.388794, +0.144775, -0.344116, +15.250024, -29.977779, -68.473892 
1488856320.432867, 1488856320.432867, -1.388794, +0.144775, -0.234253, +15.250024, -29.977779, -68.473892 
1488856320.436817, 1488856320.436817, -1.171997, -0.147705, -0.234253, +11.542138, -28.329830, -63.011246 
1488856320.440564, 1488856320.440564, -1.171997, -0.147705, -0.234253, +11.542138, -28.329830, -63.011246 
1488856320.444467, 1488856320.444467, -1.171997, -0.147705, -0.234253, +11.542138, -28.329830, -63.011246 
1488856320.448217, 1488856320.448217, -1.171997, -0.147705, -0.234253, +13.998803, -26.224117, -55.824356 
1488856320.451971, 1488856320.451971, -1.171997, -0.147705, -0.234253, +13.998803, -26.224117, -55.824356 
1488856320.456040, 1488856320.456040, -1.118652, -0.328491, -0.247803, +13.998803, -26.224117, -55.824356 
1488856320.459989, 1488856320.459989, -1.118652, -0.328491, -0.247803, +23.199852, -24.774532, -45.585709 
1488856320.463947, 1488856320.463947, -1.118652, -0.328491, -0.247803, +23.199852, -24.774532, -45.585709 
1488856320.467896, 1488856320.467896, -1.118652, -0.328491, -0.247803, +23.199852, -24.774532, -32.814102 
1488856320.471841, 1488856320.471841, -1.118652, -0.328491, -0.247803, +34.186180, -22.836666, -32.814102 
1488856320.475799, 1488856320.475799, -1.088989, -0.248291, -0.326416, +34.186180, -22.836666, -32.814102 
1488856320.479746, 1488856320.479746, -1.088989, -0.248291, -0.326416, +38.504417, -19.845943, -24.269178 
1488856320.483672, 1488856320.483672, -1.088989, -0.248291, -0.326416, +38.504417, -19.845943, -24.269178 
1488856320.487423, 1488856320.487423, -1.088989, -0.248291, -0.326416, +38.504417, -19.845943, -24.269178 
1488856320.491178, 1488856320.491178, -1.088989, -0.248291, -0.326416, +38.153465, -16.473751, -18.058851 
1488856320.495104, 1488856320.495104, -1.091187, -0.007324, -0.354126, +38.153465, -16.473751, -18.058851 
1488856320.498859, 1488856320.498859, -1.091187, -0.007324, -0.354126, +38.153465, -16.473751, -18.058851 
1488856320.502608, 1488856320.502608, -1.091187, -0.007324, -0.354126, +32.645042, -14.429073, -14.366224 
1488856320.506564, 1488856320.506564, -1.091187, -0.007324, -0.354126, +32.645042, -14.429073, -14.366224 
1488856320.510710, 1488856320.510710, -1.091187, -0.007324, -0.354126, +32.645042, -14.429073, -14.366224 
1488856320.515086, 1488856320.515086, -1.140015, -0.125000, -0.231689, +28.113182, -14.017086, -11.909559 
1488856320.519044, 1488856320.519044, -1.140015, -0.125000, -0.231689, +28.113182, -14.017086, -11.909559 
1488856320.523003, 1488856320.523003, -1.140015, -0.125000, -0.231689, +29.669579, -14.780025, -8.583143 
1488856320.526951, 1488856320.526951, -1.140015, -0.125000, -0.231689, +29.669579, -14.780025, -8.583143 
1488856320.530898, 1488856320.530898, -1.140015, -0.125000, -0.231689, +29.669579, -14.780025, -8.583143 
1488856320.534892, 1488856320.534892, -1.054565, -0.144409, -0.300049, +29.211815, -14.841061, -5.470350 
1488856320.538839, 1488856320.538839, -1.054565, -0.144409, -0.300049, +29.211815, -14.841061, -5.470350 
1488856320.542788, 1488856320.542788, -1.054565, -0.144409, -0.300049, +29.211815, -14.841061, -5.470350 
1488856320.546558, 1488856320.546558, -1.054565, -0.144409, -0.300049, +29.806908, -14.444332, -3.761366 
1488856320.550306, 1488856320.550306, -1.054565, -0.144409, -0.300049, +29.806908, -14.444332, -3.761366 
1488856320.554082, 1488856320.554082, -1.094971, -0.118530, -0.345703, +29.806908, -14.444332, -3.761366 
1488856320.557821, 1488856320.557821, -1.094971, -0.118530, -0.345703, +29.516991, -15.924435, -3.013685 
1488856320.561578, 1488856320.561578, -1.094971, -0.118530, -0.345703, +29.516991, -15.924435, -3.013685 
1488856320.565489, 1488856320.565489, -1.094971, -0.118530, -0.345703, +29.516991, -15.924435, -2.510145 
1488856320.569240, 1488856320.569240, -1.094971, -0.118530, -0.345703, +29.501732, -16.702633, -2.510145 
1488856320.573113, 1488856320.573113, -1.042603, -0.089600, -0.325073, +29.501732, -16.702633, -2.510145 
1488856320.577057, 1488856320.577057, -1.042603, -0.089600, -0.325073, +33.407982, -18.167477, -2.311781 
1488856320.581013, 1488856320.581013, -1.042603, -0.089600, -0.325073, +32.034691, -18.167477, -2.311781 
1488856320.584964, 1488856320.584964, -1.042603, -0.089600, -0.325073, +32.034691, -18.167477, -2.311781 
1488856320.588912, 1488856320.588912, -1.042603, -0.089600, -0.325073, +34.827049, -20.441036, -4.249647 
1488856320.592859, 1488856320.592859, -0.946899, -0.035889, -0.340698, +34.827049, -20.441036, -4.249647 
1488856320.596630, 1488856320.596630, -0.946899, -0.035889, -0.340698, +34.827049, -20.441036, -4.249647 
1488856320.600372, 1488856320.600372, -0.946899, -0.035889, -0.340698, +37.619408, -22.394161, -6.401136 
1488856320.604194, 1488856320.604194, -0.946899, -0.035889, -0.340698, +37.619408, -22.394161, -6.401136 
1488856320.608151, 1488856320.608151, -0.946899, -0.035889, -0.340698, +37.619408, -22.394161, -6.401136 
1488856320.612102, 1488856320.612102, -0.946899, -0.017578, -0.281006, +33.942039, -22.714596, -11.467054 
1488856320.616107, 1488856320.616107, -0.998047, -0.017578, -0.281006, +33.942039, -22.714596, -11.467054 
1488856320.620055, 1488856320.620055, -0.998047, -0.017578, -0.281006, +33.942039, -22.714596, -18.058851 
1488856320.624013, 1488856320.624013, -0.998047, -0.017578, -0.281006, +31.103905, -24.576168, -18.058851 
1488856320.627959, 1488856320.627959, -0.998047, -0.017578, -0.281006, +31.103905, -24.576168, -18.058851 
1488856320.632096, 1488856320.632096, -0.998047, +0.071411, -0.274170, +29.349144, -26.575069, -25.093153 
1488856320.636344, 1488856320.636344, -0.985107, +0.071411, -0.274170, +29.349144, -26.575069, -25.093153 
1488856320.640291, 1488856320.640291, -0.985107, +0.071411, -0.274170, +29.349144, -26.575069, -25.093153 
1488856320.644233, 1488856320.644233, -0.985107, +0.071411, -0.274170, +26.053246, -28.696041, -31.440809 
1488856320.648091, 1488856320.648091, -0.985107, +0.071411, -0.274170, +26.053246, -28.696041, -31.440809 
1488856320.651853, 1488856320.651853, -0.985107, +0.069702, -0.312988, +26.053246, -28.696041, -31.440809 
1488856320.655759, 1488856320.655759, -0.977661, +0.069702, -0.312988, +20.590599, -31.381588, -38.185196 
1488856320.659712, 1488856320.659712, -0.977661, +0.069702, -0.312988, +20.590599, -31.381588, -38.185196 
1488856320.663650, 1488856320.663650, -0.977661, +0.069702, -0.312988, +20.590599, -31.381588, -44.517593 
1488856320.667406, 1488856320.667406, -0.977661, +0.069702, -0.312988, +16.058739, -33.304195, -44.517593 
1488856320.671164, 1488856320.671164, -0.977661, +0.069702, -0.350098, +16.058739, -33.304195, -44.517593 
1488856320.674916, 1488856320.674916, -1.049316, +0.034180, -0.350098, +16.058739, -34.891109, -48.774796 
1488856320.678666, 1488856320.678666, -1.049316, +0.034180, -0.350098, +12.518701, -34.891109, -48.774796 
1488856320.682421, 1488856320.682421, -1.049316, +0.034180, -0.350098, +12.518701, -34.891109, -48.774796 
1488856320.686305, 1488856320.686305, -1.049316, +0.034180, -0.350098, +11.023339, -36.493282, -52.024918 
1488856320.690058, 1488856320.690058, -1.049316, +0.034180, -0.350098, +11.023339, -36.493282, -52.024918 
1488856320.693959, 1488856320.693959, -1.170776, -0.077881, -0.277588, +11.023339, -36.493282, -52.024918 
1488856320.697709, 1488856320.697709, -1.170776, -0.077881, -0.277588, +10.916528, -39.178829, -55.259781 
1488856320.701458, 1488856320.701458, -1.170776, -0.077881, -0.277588, +10.916528, -39.178829, -55.259781 
1488856320.705340, 1488856320.705340, -1.170776, -0.077881, -0.277588, +10.916528, -39.178829, -55.259781 
1488856320.709289, 1488856320.709289, -1.170776, -0.077881, -0.277588, +11.740502, -41.009884, -57.441788 
1488856320.713279, 1488856320.713279, -1.252319, -0.053955, -0.254761, +11.740502, -41.009884, -57.441788 
1488856320.717226, 1488856320.717226, -1.252319, -0.053955, -0.254761, +11.740502, -41.009884, -57.441788 
1488856320.721179, 1488856320.721179, -1.252319, -0.053955, -0.254761, +14.105615, -43.863277, -60.768204 
1488856320.725141, 1488856320.725141, -1.252319, -0.053955, -0.254761, +14.105615, -43.863277, -60.768204 
1488856320.729086, 1488856320.729086, -1.252319, -0.053955, -0.254761, +14.105615, -47.769527, -65.147476 
1488856320.733050, 1488856320.733050, -1.302734, +0.144653, -0.167969, +17.691429, -46.899776, -65.147476 
1488856320.736997, 1488856320.736997, -1.302734, +0.144653, -0.167969, +17.691429, -46.899776, -65.147476 
1488856320.740948, 1488856320.740948, -1.302734, +0.144653, -0.167969, +15.646752, -52.148800, -70.503311 
1488856320.744817, 1488856320.744817, -1.302734, +0.144653, -0.167969, +15.646752, -52.148800, -70.503311 
1488856320.748574, 1488856320.748574, -1.302734, +0.144653, -0.167969, +15.646752, -52.148800, -70.503311 
1488856320.752442, 1488856320.752442, -1.397949, +0.104492, -0.243774, +9.009179, -55.536251, -77.797012 
1488856320.756560, 1488856320.756560, -1.397949, +0.104492, -0.243774, +9.009179, -55.536251, -77.797012 
1488856320.760505, 1488856320.760505, -1.397949, +0.104492, -0.243774, +9.009179, -55.536251, -77.797012 
1488856320.764496, 1488856320.764496, -1.397949, +0.104492, -0.243774, +3.516015, -61.044674, -87.471085 
1488856320.768449, 1488856320.768449, -1.397949, +0.104492, -0.243774, +3.516015, -61.044674, -87.471085 
1488856320.772394, 1488856320.772394, -1.420654, +0.190186, -0.418701, +3.516015, -61.044674, -94.368057 
1488856320.776350, 1488856320.776350, -1.420654, +0.190186, -0.418701, +2.524194, -66.522575, -94.368057 
1488856320.780301, 1488856320.780301, -1.420654, +0.190186, -0.418701, +2.524194, -66.522575, -94.368057 
1488856320.784227, 1488856320.784227, -1.420654, +0.190186, -0.418701, +3.836450, -71.802116, -98.518448 
1488856320.787972, 1488856320.787972, -1.420654, +0.190186, -0.418701, +3.836450, -71.802116, -98.518448 
1488856320.791713, 1488856320.791713, -1.612793, +0.021484, -0.504395, +3.836450, -71.802116, -98.518448 
1488856320.795582, 1488856320.795582, -1.612793, +0.021484, -0.504395, +6.155786, -76.791740, -104.057388 
1488856320.799332, 1488856320.799332, -1.612793, +0.021484, -0.504395, +6.155786, -76.791740, -104.057388 
1488856320.803142, 1488856320.803142, -1.612793, +0.021484, -0.504395, +6.155786, -76.791740, -104.057388 
1488856320.806911, 1488856320.806911, -1.612793, +0.021484, -0.504395, +15.341577, -81.308342, -109.352188 
1488856320.810667, 1488856320.810667, -1.612793, +0.090576, -0.745239, +15.341577, -81.308342, -109.352188 
1488856320.814629, 1488856320.814629, -1.689941, +0.090576, -0.745239, +15.341577, -81.308342, -109.352188 
1488856320.818582, 1488856320.818582, -1.689941, +0.090576, -0.745239, +27.457054, -86.084343, -112.800674 
1488856320.822540, 1488856320.822540, -1.689941, +0.090576, -0.745239, +27.457054, -86.084343, -112.800674 
1488856320.826503, 1488856320.826503, -1.689941, +0.090576, -0.745239, +27.457054, -86.084343, -112.800674 
1488856320.830454, 1488856320.830454, -1.689941, +0.351929, -0.806885, +44.089134, -91.638542, -111.671524 
1488856320.834409, 1488856320.834409, -1.886230, +0.351929, -0.806885, +44.089134, -91.638542, -111.671524 
1488856320.838350, 1488856320.838350, -1.886230, +0.351929, -0.806885, +55.807884, -97.391106, -116.310196 
1488856320.842301, 1488856320.842301, -1.886230, +0.351929, -0.806885, +54.617699, -97.391106, -116.310196 
1488856320.846137, 1488856320.846137, -1.886230, +0.351929, -0.806885, +54.617699, -97.391106, -116.310196 
1488856320.849889, 1488856320.849889, -1.886230, +0.351929, -1.296509, +64.902122, -99.908806, -121.955948 
1488856320.853725, 1488856320.853725, -2.162354, +0.864624, -1.296509, +64.902122, -99.908806, -121.955948 
1488856320.857678, 1488856320.857678, -2.162354, +0.864624, -1.296509, +64.902122, -99.908806, -121.955948 
1488856320.861625, 1488856320.861625, -2.162354, +0.864624, -1.296509, +88.141258, -105.905510, -122.062759 
1488856320.865588, 1488856320.865588, -2.162354, +0.864624, -1.296509, +88.141258, -105.905510, -122.062759 
1488856320.869702, 1488856320.869702, -2.162354, +0.864624, -0.988892, +88.141258, -105.905510, -122.062759 
1488856320.874074, 1488856320.874074, -2.115356, +0.621948, -0.988892, +129.156891, -109.369255, -111.061172 
1488856320.878033, 1488856320.878033, -2.115356, +0.621948, -0.988892, +129.156891, -109.369255, -111.061172 
1488856320.881980, 1488856320.881980, -2.115356, +0.621948, -0.988892, +156.500641, -107.446648, -103.477554 
1488856320.885802, 1488856320.885802, -2.115356, +0.621948, -0.988892, +155.875031, -107.446648, -103.477554 
1488856320.889554, 1488856320.889554, -2.115356, +0.621948, -0.841431, +155.875031, -107.446648, -103.477554 
1488856320.893332, 1488856320.893332, -2.079346, +0.412476, -0.841431, +157.553497, -112.054802, -101.280289 
1488856320.897283, 1488856320.897283, -2.079346, +0.412476, -0.841431, +157.553497, -112.054802, -101.280289 
1488856320.901226, 1488856320.901226, -2.079346, +0.412476, -0.841431, +157.553497, -112.054802, -101.280289 
1488856320.905090, 1488856320.905090, -2.079346, +0.412476, -0.841431, +129.080597, -122.247673, -102.912979 
1488856320.908839, 1488856320.908839, -2.079346, +0.412476, -0.841431, +129.080597, -122.247673, -102.912979 
1488856320.912587, 1488856320.912587, -1.640381, +0.405762, -0.743652, +129.080597, -122.247673, -102.912979 
1488856320.916388, 1488856320.916388, -1.640381, +0.405762, -0.743652, +72.897728, -124.460197, -109.169083 
1488856320.920142, 1488856320.920142, -1.640381, +0.405762, -0.743652, +72.897728, -124.460197, -109.169083 
1488856320.923998, 1488856320.923998, -1.640381, +0.405762, -0.743652, +72.897728, -124.460197, -109.169083 
1488856320.927749, 1488856320.927749, -1.640381, +0.405762, -0.743652, +15.372094, -116.083122, -110.374527 
1488856320.931503, 1488856320.931503, -1.136475, +0.307007, -0.663452, +15.372094, -116.083122, -110.374527 
1488856320.935344, 1488856320.935344, -1.136475, +0.307007, -0.663452, +15.372094, -116.083122, -110.374527 
1488856320.939099, 1488856320.939099, -1.136475, +0.307007, -0.663452, -18.716042, -103.738762, -104.805069 
1488856320.943010, 1488856320.943010, -1.136475, +0.307007, -0.663452, -18.716042, -103.738762, -104.805069 
1488856320.946964, 1488856320.946964, -1.136475, +0.307007, -0.663452, -18.716042, -88.113762, -93.467789 
1488856320.950912, 1488856320.950912, -0.537842, -0.529663, -0.305542, -43.557350, -85.184074, -93.467789 
1488856320.954901, 1488856320.954901, -0.537842, -0.529663, -0.305542, -43.557350, -85.184074, -93.467789 
1488856320.958854, 1488856320.958854, -0.537842, -0.529663, -0.305542, -33.883278, -50.638180, -75.218277 
1488856320.962799, 1488856320.962799, -0.537842, -0.529663, -0.305542, -33.883278, -50.638180, -75.218277 
1488856320.966574, 1488856320.966574, -0.537842, -0.529663, -0.305542, -33.883278, -50.638180, -75.218277 
1488856320.970318, 1488856320.970318, -1.058350, -1.001465, +0.222168, +8.887109, -24.011593, -50.209122 
1488856320.974204, 1488856320.974204, -1.058350, -1.001465, +0.222168, +8.887109, -24.011593, -50.209122 
1488856320.977949, 1488856320.977949, -1.058350, -1.001465, +0.222168, +8.887109, -24.011593, -50.209122 
1488856320.981699, 1488856320.981699, -1.058350, -1.001465, +0.222168, +48.025902, -17.755489, -13.328627 
1488856320.985619, 1488856320.985619, -1.058350, -1.001465, +0.222168, +48.025902, -17.755489, -13.328627 
1488856320.989707, 1488856320.989707, -0.346924, +0.177490, -0.373901, +48.025902, -17.755489, -13.328627 
1488856320.994083, 1488856320.994083, -0.346924, +0.177490, -0.373901, +46.103294, -7.883052, +11.939928 
1488856320.998028, 1488856320.998028, -0.346924, +0.177490, -0.373901, +46.103294, -7.883052, +11.939928 
1488856321.001979, 1488856321.001979, -0.346924, +0.177490, -0.373901, +27.716454, +3.591557, +23.384020 
1488856321.005971, 1488856321.005971, -0.346924, +0.177490, -0.373901, +27.716454, +3.591557, +23.384020 
1488856321.009891, 1488856321.009891, +0.022339, +0.500732, -0.229736, +27.716454, +3.591557, +23.384020 
1488856321.013861, 1488856321.013861, +0.022339, +0.500732, -0.229736, +8.704003, +14.852543, +31.928942 
1488856321.017829, 1488856321.017829, +0.022339, +0.500732, -0.229736, +8.704003, +14.852543, +31.928942 
1488856321.021780, 1488856321.021780, +0.022339, +0.500732, -0.229736, +8.704003, +14.852543, +31.928942 
1488856321.025604, 1488856321.025604, +0.022339, +0.500732, -0.229736, -6.295386, +28.844852, +46.073837 
1488856321.029355, 1488856321.029355, +0.040161, +0.448364, -0.102661, -6.295386, +28.844852, +46.073837 
1488856321.033102, 1488856321.033102, +0.040161, +0.448364, -0.102661, -6.295386, +28.844852, +46.073837 
1488856321.036850, 1488856321.036850, +0.040161, +0.448364, -0.102661, -22.271339, +47.781010, +64.750595 
1488856321.040607, 1488856321.040607, +0.040161, +0.448364, -0.102661, -22.271339, +47.781010, +64.750595 
1488856321.044529, 1488856321.044529, +0.040161, +0.448364, -0.102661, -22.271339, +47.781010, +84.281845 
1488856321.048291, 1488856321.048291, +0.040161, +0.448364, -0.121948, -40.017311, +67.266487, +84.571762 
1488856321.052043, 1488856321.052043, -0.240601, +0.210083, -0.121948, -40.017311, +67.266487, +84.571762 
1488856321.056046, 1488856321.056046, -0.240601, +0.210083, -0.121948, -40.017311, +84.402107, +102.638168 
1488856321.060000, 1488856321.060000, -0.240601, +0.210083, -0.121948, -54.681007, +84.402107, +102.638168 
1488856321.063970, 1488856321.063970, -0.240601, +0.210083, -0.121948, -54.681007, +84.402107, +102.638168 
1488856321.067923, 1488856321.067923, -0.240601, +0.210083, -0.121948, -62.737648, +97.204231, +118.247910 
1488856321.071875, 1488856321.071875, -0.383545, +0.127686, -0.120850, -62.737648, +97.204231, +118.247910 
1488856321.075831, 1488856321.075831, -0.383545, +0.127686, -0.120850, -62.737648, +97.204231, +118.247910 
1488856321.079781, 1488856321.079781, -0.383545, +0.127686, -0.120850, -65.240089, +106.817268, +131.767197 
1488856321.083753, 1488856321.083753, -0.383545, +0.127686, -0.120850, -65.240089, +106.817268, +131.767197 
1488856321.087701, 1488856321.087701, -0.383545, +0.127686, -0.120850, -65.240089, +106.817268, +131.767197 
1488856321.091883, 1488856321.091883, -0.440918, +0.103882, -0.238525, -63.241188, +115.041756, +146.720810 
1488856321.095719, 1488856321.095719, -0.440918, +0.103882, -0.238525, -63.241188, +115.041756, +146.720810 
1488856321.099922, 1488856321.099922, -0.440918, +0.103882, -0.238525, -58.541481, +121.404671, +162.254257 
1488856321.103735, 1488856321.103735, -0.440918, +0.103882, -0.238525, -58.541481, +121.404671, +162.254257 
1488856321.107472, 1488856321.107472, -0.440918, +0.103882, -0.238525, -58.541481, +121.404671, +162.254257 
1488856321.111221, 1488856321.111221, -0.562744, +0.185669, -0.218872, -57.030861, +127.614998, +177.406235 
1488856321.115018, 1488856321.115018, -0.562744, +0.185669, -0.218872, -57.030861, +127.614998, +177.406235 
1488856321.118759, 1488856321.118759, -0.562744, +0.185669, -0.218872, -57.030861, +127.614998, +177.406235 
1488856321.122500, 1488856321.122500, -0.562744, +0.185669, -0.218872, -61.333839, +134.130493, +190.605087 
1488856321.126261, 1488856321.126261, -0.562744, +0.185669, -0.218872, -61.333839, +134.130493, +190.605087 
1488856321.130003, 1488856321.130003, -0.694092, +0.318359, -0.243652, -61.333839, +134.130493, +190.605087 
1488856321.133754, 1488856321.133754, -0.694092, +0.318359, -0.243652, -68.886940, +141.714111, +202.308578 
1488856321.137501, 1488856321.137501, -0.694092, +0.318359, -0.243652, -68.886940, +141.714111, +202.308578 
1488856321.141246, 1488856321.141246, -0.694092, +0.318359, -0.243652, -68.886940, +141.714111, +202.308578 
1488856321.145163, 1488856321.145163, -0.694092, +0.318359, -0.243652, -78.896706, +149.343506, +213.111801 
1488856321.148913, 1488856321.148913, -0.872437, +0.372192, -0.285156, -78.896706, +149.343506, +213.111801 
1488856321.152662, 1488856321.152662, -0.872437, +0.372192, -0.285156, -78.896706, +149.343506, +213.111801 
1488856321.156698, 1488856321.156698, -0.872437, +0.372192, -0.285156, -91.241066, +155.965820, +224.296494 
1488856321.160652, 1488856321.160652, -0.872437, +0.372192, -0.285156, -91.241066, +155.965820, +224.296494 
1488856321.164539, 1488856321.164539, -0.872437, +0.372192, -0.285156, -91.241066, +155.965820, +234.992905 
1488856321.168292, 1488856321.168292, -1.086426, +0.311157, -0.394409, -95.574562, +161.809937, +234.992905 
1488856321.172044, 1488856321.172044, -1.086426, +0.311157, -0.394409, -95.574562, +161.809937, +234.992905 
1488856321.175960, 1488856321.175960, -1.086426, +0.311157, -0.394409, -99.480812, +166.646973, +245.231552 
1488856321.179910, 1488856321.179910, -1.086426, +0.311157, -0.394409, -101.327126, +166.646973, +245.231552 
1488856321.183903, 1488856321.183903, -1.086426, +0.311157, -0.394409, -101.327126, +166.646973, +245.231552 
1488856321.187846, 1488856321.187846, -1.086426, +0.383789, -0.395996, -110.940163, +170.827881, +255.836411 
1488856321.191802, 1488856321.191802, -1.382080, +0.383789, -0.395996, -110.940163, +170.827881, +255.836411 
1488856321.195765, 1488856321.195765, -1.382080, +0.383789, -0.395996, -110.940163, +170.827881, +255.836411 
1488856321.199712, 1488856321.199712, -1.382080, +0.383789, -0.395996, -118.157570, +176.092163, +267.402588 
1488856321.203672, 1488856321.203672, -1.382080, +0.383789, -0.395996, -118.157570, +176.092163, +267.402588 
1488856321.207615, 1488856321.207615, -1.382080, +0.138550, -0.554565, -118.157570, +176.092163, +275.215088 
1488856321.211749, 1488856321.211749, -1.981079, +0.138550, -0.554565, -130.028900, +178.503052, +275.093018 
1488856321.215830, 1488856321.215830, -1.981079, +0.138550, -0.554565, -130.028900, +178.503052, +275.093018 
1488856321.219583, 1488856321.219583, -1.981079, +0.138550, -0.554565, -141.747650, +175.436035, +279.655396 
1488856321.223359, 1488856321.223359, -1.981079, +0.138550, -0.554565, -143.410858, +175.436035, +279.655396 
1488856321.227311, 1488856321.227311, -1.981079, -0.423950, -0.617065, -143.410858, +175.436035, +279.655396 
1488856321.231258, 1488856321.231258, -2.535645, -0.424438, -0.617065, -142.586884, +170.492188, +284.995972 
1488856321.235212, 1488856321.235212, -2.535645, -0.424438, -0.617065, -142.586884, +170.492188, +284.995972 
1488856321.239271, 1488856321.239271, -2.535645, -0.424438, -0.617065, -142.586884, +170.492188, +284.995972 
1488856321.243258, 1488856321.243258, -2.535645, -0.424438, -0.617065, -118.798439, +163.045898, +286.933838 
1488856321.247005, 1488856321.247005, -2.535645, -0.424438, -0.348999, -118.798439, +163.045898, +286.933838 
1488856321.250750, 1488856321.250750, -3.097778, -1.065918, -0.348999, -118.798439, +163.045898, +286.933838 
1488856321.254507, 1488856321.254507, -3.097778, -1.065918, -0.348999, -83.413307, +150.106445, +278.388916 
1488856321.258261, 1488856321.258261, -3.097778, -1.065918, -0.348999, -83.413307, +150.106445, +278.388916 
1488856321.262013, 1488856321.262013, -3.097778, -1.065918, -0.348999, -83.413307, +150.106445, +278.388916 
1488856321.265914, 1488856321.265914, -3.097778, -1.065918, -0.348999, -56.222145, +125.600838, +257.591187 
1488856321.269657, 1488856321.269657, -2.441406, -0.648193, -0.519897, -56.222145, +125.600838, +257.591187 
1488856321.273585, 1488856321.273585, -2.441406, -0.648193, -0.519897, -56.222145, +113.882088, +220.832748 
1488856321.277531, 1488856321.277531, -2.441406, -0.648193, -0.519897, -49.737160, +113.851570, +220.832748 
1488856321.281475, 1488856321.281475, -2.441406, -0.648193, -0.519897, -49.737160, +113.851570, +220.832748 
1488856321.285426, 1488856321.285426, -2.441406, -0.648193, -0.519897, -59.197609, +114.889168, +174.430771 
1488856321.289374, 1488856321.289374, -2.400269, -1.987915, +0.091309, -59.197609, +114.889168, +174.430771 
1488856321.293332, 1488856321.293332, -2.400269, -1.987915, +0.091309, -59.197609, +114.889168, +174.430771 
1488856321.297287, 1488856321.297287, -2.400269, -1.987915, +0.091309, -67.956154, +93.832039, +107.337875 
1488856321.301239, 1488856321.301239, -2.400269, -1.987915, +0.091309, -67.956154, +93.832039, +107.337875 
1488856321.305096, 1488856321.305096, -2.400269, -1.987915, +0.091309, -67.956154, +93.832039, +107.337875 
1488856321.308843, 1488856321.308843, -2.179932, -2.272949, +1.064941, -49.157326, +57.546635, +39.680405 
1488856321.312584, 1488856321.312584, -2.179932, -2.272949, +1.064941, -49.157326, +57.546635, +39.680405 
1488856321.316632, 1488856321.316632, -2.179932, -2.272949, +1.064941, -49.157326, +57.546635, -22.819593 
1488856321.320548, 1488856321.320548, -2.179932, -2.272949, +1.064941, -18.365089, +9.664555, -24.299696 
1488856321.324514, 1488856321.324514, -2.179932, -2.272949, +1.064941, -18.365089, +9.664555, -24.299696 
1488856321.328458, 1488856321.328458, -2.015625, -1.727661, +0.498291, -23.202126, -38.629513, -86.021500 
1488856321.332904, 1488856321.332904, -2.015625, -1.727661, +0.498291, -23.202126, -38.629513, -86.021500 
1488856321.336899, 1488856321.336899, -2.015625, -1.727661, +0.498291, -23.202126, -38.629513, -86.021500 
1488856321.340846, 1488856321.340846, -2.015625, -1.727661, +0.498291, -26.208107, -63.898067, -138.191299 
1488856321.344802, 1488856321.344802, -2.015625, -1.727661, +0.498291, -26.208107, -63.898067, -138.191299 
1488856321.348753, 1488856321.348753, -1.874634, -0.975952, -0.375488, -26.208107, -63.898067, -138.191299 
1488856321.352701, 1488856321.352701, -1.874634, -0.975952, -0.375488, -28.100197, -72.107292, -179.893570 
1488856321.356496, 1488856321.356496, -1.874634, -0.975952, -0.375488, -28.100197, -72.107292, -179.893570 
1488856321.360244, 1488856321.360244, -1.874634, -0.975952, -0.375488, -28.100197, -72.107292, -179.893570 
1488856321.364042, 1488856321.364042, -1.874634, -0.975952, -0.375488, -41.070168, -72.092033, -188.270645 
1488856321.367783, 1488856321.367783, -0.865601, +2.933716, -1.806396, -41.070168, -72.092033, -188.270645 
1488856321.371530, 1488856321.371530, -0.865601, +2.933716, -1.806396, -41.070168, -72.092033, -151.634293 
1488856321.375334, 1488856321.375334, -0.865601, +2.933716, -1.806396, -88.723366, -62.662106, -151.634293 
1488856321.379087, 1488856321.379087, -0.865601, +2.933716, -1.806396, -88.723366, -62.662106, -151.634293 
1488856321.382939, 1488856321.382939, -0.865601, +2.933716, -1.806396, +35.208519, -38.965206, -73.570328 
1488856321.387048, 1488856321.387048, -1.687500, +0.986816, +0.249512, +35.208519, -38.965206, -73.570328 
1488856321.391002, 1488856321.391002, -1.687500, +0.986816, +0.249512, +35.208519, -38.965206, -73.570328 
1488856321.394958, 1488856321.394958, -1.687500, +0.986816, +0.249512, +105.383690, -20.242672, -67.115860 
1488856321.398909, 1488856321.398909, -1.687500, +0.986816, +0.249512, +105.383690, -20.242672, -67.115860 
1488856321.402856, 1488856321.402856, -1.687500, +0.986816, +0.249512, +105.383690, -20.242672, -67.115860 
1488856321.406631, 1488856321.406631, -2.459717, -1.511719, +0.509766, -42.443459, -41.376095, -144.035416 
1488856321.410381, 1488856321.410381, -2.459717, -1.511719, +0.509766, -42.443459, -41.376095, -144.035416 
1488856321.414190, 1488856321.414190, -2.459717, -1.511719, +0.509766, -42.443459, -41.376095, -144.035416 
1488856321.418114, 1488856321.418114, -2.459717, -1.511719, +0.509766, -118.004982, -33.822994, -192.466812 
1488856321.422039, 1488856321.422039, -2.459717, -1.511719, +0.509766, -118.004982, -33.822994, -192.466812 
1488856321.425899, 1488856321.425899, -2.459717, -0.660767, -0.729736, -118.004982, -33.822994, -188.163834 
1488856321.429646, 1488856321.429646, -1.287476, -0.660767, -0.729736, -97.680275, -20.883541, -188.163834 
1488856321.433399, 1488856321.433399, -1.287476, -0.660767, -0.729736, -97.680275, -20.883541, -188.163834 
1488856321.437339, 1488856321.437339, -1.287476, -0.660767, -0.729736, -31.274025, -8.417110, -163.673477 
1488856321.441342, 1488856321.441342, -1.287476, -0.660767, -0.729736, -29.809181, -8.417110, -163.673477 
1488856321.445488, 1488856321.445488, -1.287476, -0.848267, -0.294678, -29.809181, -8.417110, -163.673477 
1488856321.449431, 1488856321.449431, -1.521729, -0.863037, -0.294678, +30.051048, -17.618160, -147.422867 
1488856321.453379, 1488856321.453379, -1.521729, -0.863037, -0.294678, +30.051048, -17.618160, -147.422867 
1488856321.457129, 1488856321.457129, -1.521729, -0.863037, -0.294678, +30.051048, -17.618160, -147.422867 
1488856321.460882, 1488856321.460882, -1.521729, -0.863037, -0.294678, +66.946800, -33.349972, -126.686172 
1488856321.464728, 1488856321.464728, -1.521729, -0.863037, -0.294678, +66.946800, -33.349972, -126.686172 
1488856321.468676, 1488856321.468676, -0.737793, -0.088867, -0.730591, +66.946800, -33.349972, -126.686172 
1488856321.472627, 1488856321.472627, -0.737793, -0.088867, -0.730591, +91.955956, -42.932491, -100.776749 
1488856321.476408, 1488856321.476408, -0.737793, -0.088867, -0.730591, +91.955956, -42.932491, -100.776749 
1488856321.480169, 1488856321.480169, -0.737793, -0.088867, -0.730591, +91.955956, -42.932491, -81.245499 
1488856321.483927, 1488856321.483927, -0.737793, -0.088867, -0.730591, +91.376122, -39.484005, -80.314713 
1488856321.487683, 1488856321.487683, -1.046509, -0.357422, -0.182495, +91.376122, -39.484005, -80.314713 
1488856321.491434, 1488856321.491434, -1.046509, -0.357422, -0.182495, +91.376122, -31.671505, -65.254288 
1488856321.495334, 1488856321.495334, -1.046509, -0.357422, -0.182495, +77.994164, -30.649166, -65.254288 
1488856321.499084, 1488856321.499084, -1.046509, -0.357422, -0.182495, +77.994164, -30.649166, -65.254288 
1488856321.502833, 1488856321.502833, -1.046509, -0.357422, -0.182495, +72.485741, -32.220821, -56.770401 
1488856321.506721, 1488856321.506721, -1.378296, +0.300293, -0.357666, +72.485741, -32.220821, -56.770401 
1488856321.510473, 1488856321.510473, -1.378296, +0.300293, -0.357666, +72.485741, -32.220821, -56.770401 
1488856321.514320, 1488856321.514320, -1.378296, +0.300293, -0.357666, +56.341942, -29.306393, -53.688126 
1488856321.518242, 1488856321.518242, -1.378296, +0.300293, -0.357666, +56.341942, -29.306393, -53.688126 
1488856321.522163, 1488856321.522163, -1.378296, +0.300293, -0.357666, +56.341942, -29.306393, -53.688126 
1488856321.526061, 1488856321.526061, -1.278564, +0.221680, -0.293579, +28.616722, -25.400143, -57.136612 
1488856321.530048, 1488856321.530048, -1.278564, +0.221680, -0.293579, +28.616722, -25.400143, -57.136612 
1488856321.533949, 1488856321.533949, -1.278564, +0.221680, -0.293579, +28.616722, -25.400143, -57.136612 
1488856321.537895, 1488856321.537895, -1.278564, +0.221680, -0.293579, +4.935082, -22.378902, -60.844498 
1488856321.541837, 1488856321.541837, -1.278564, +0.221680, -0.293579, +4.935082, -22.378902, -60.844498 
1488856321.545792, 1488856321.545792, -1.083496, -0.117920, -0.452759, +4.935082, -18.472652, -57.182388 
1488856321.549737, 1488856321.549737, -1.083496, -0.117920, -0.452759, -0.939551, -21.448116, -57.182388 
1488856321.553670, 1488856321.553670, -1.083496, -0.117920, -0.452759, -0.939551, -21.448116, -57.182388 
1488856321.557422, 1488856321.557422, -1.083496, -0.117920, -0.452759, +12.717065, -21.585445, -46.318130 
1488856321.561373, 1488856321.561373, -1.083496, -0.117920, -0.452759, +12.717065, -21.585445, -46.318130 
1488856321.565683, 1488856321.565683, -1.139404, -0.270874, -0.445923, +12.717065, -21.585445, -46.318130 
1488856321.569625, 1488856321.569625, -1.139404, -0.270874, -0.445923, +31.760033, -21.829586, -34.828262 
1488856321.573584, 1488856321.573584, -1.139404, -0.270874, -0.445923, +31.760033, -21.829586, -34.828262 
1488856321.577530, 1488856321.577530, -1.139404, -0.270874, -0.445923, +31.760033, -21.829586, -34.828262 
1488856321.581483, 1488856321.581483, -1.139404, -0.270874, -0.445923, +46.332176, -22.638302, -24.757460 
1488856321.585430, 1488856321.585430, -1.016602, -0.154297, -0.361938, +46.332176, -22.638302, -24.757460 
1488856321.589374, 1488856321.589374, -1.016602, -0.154297, -0.361938, +46.332176, -22.638302, -18.486097 
1488856321.593314, 1488856321.593314, -1.016602, -0.154297, -0.361938, +52.084740, -22.150021, -18.486097 
1488856321.597065, 1488856321.597065, -1.016602, -0.154297, -0.361938, +52.084740, -22.150021, -18.486097 
1488856321.600811, 1488856321.600811, -1.016602, -0.154297, -0.361938, +52.084740, -19.571285, -16.441420 
1488856321.604622, 1488856321.604622, -1.016602, +0.111328, -0.339722, +50.986107, -19.571285, -16.441420 
1488856321.608372, 1488856321.608372, -0.972046, +0.111328, -0.339722, +50.986107, -19.571285, -16.441420 
1488856321.612776, 1488856321.612776, -0.972046, +0.111328, -0.339722, +42.609032, -16.916256, -15.678480 
1488856321.616597, 1488856321.616597, -0.972046, +0.111328, -0.339722, +42.609032, -16.916256, -15.678480 
1488856321.620335, 1488856321.620335, -0.972046, +0.111328, -0.339722, +42.609032, -16.916256, -15.678480 
1488856321.624094, 1488856321.624094, -0.972046, -0.076172, -0.242554, +35.040672, -16.321163, -16.258314 
1488856321.627836, 1488856321.627836, -1.149780, -0.072510, -0.242554, +35.040672, -16.321163, -16.258314 
1488856321.631586, 1488856321.631586, -1.149780, -0.072510, -0.242554, +35.040672, -16.321163, -16.258314 
1488856321.635445, 1488856321.635445, -1.149780, -0.072510, -0.242554, +34.491356, -18.732052, -18.180922 
1488856321.639185, 1488856321.639185, -1.149780, -0.072510, -0.242554, +34.491356, -18.732052, -18.180922 
1488856321.642925, 1488856321.642925, -1.149780, -0.072510, -0.242554, +34.491356, -18.732052, -18.180922 
1488856321.646736, 1488856321.646736, -1.045776, +0.023682, -0.342041, +37.604149, -20.608883, -18.379286 
1488856321.650491, 1488856321.650491, -1.045776, +0.023682, -0.342041, +37.604149, -20.608883, -18.379286 
1488856321.654378, 1488856321.654378, -1.045776, +0.023682, -0.342041, +37.604149, -20.608883, -18.379286 
1488856321.658136, 1488856321.658136, -1.045776, +0.023682, -0.342041, +40.488060, -22.500973, -17.814711 
1488856321.661891, 1488856321.661891, -1.045776, +0.023682, -0.342041, +40.488060, -22.500973, -17.814711 
1488856321.665894, 1488856321.665894, -1.031616, +0.004028, -0.346680, +40.488060, -21.829586, -19.294813 
1488856321.669849, 1488856321.669849, -1.031616, +0.004028, -0.346680, +37.619408, -21.829586, -19.294813 
1488856321.673766, 1488856321.673766, -1.031616, +0.004028, -0.346680, +37.619408, -21.829586, -19.294813 
1488856321.677520, 1488856321.677520, -1.031616, +0.004028, -0.346680, +36.124046, -23.035030, -22.224501 
1488856321.681382, 1488856321.681382, -1.031616, +0.004028, -0.346680, +36.124046, -23.035030, -22.224501 
1488856321.685305, 1488856321.685305, -1.062744, -0.118042, -0.248169, +36.124046, -23.035030, -22.224501 
1488856321.689245, 1488856321.689245, -1.062744, -0.118042, -0.248169, +34.964378, -23.920040, -24.833754 
1488856321.693247, 1488856321.693247, -1.062744, -0.118042, -0.248169, +34.964378, -23.920040, -24.833754 
1488856321.697206, 1488856321.697206, -1.062744, -0.118042, -0.248169, +34.964378, -23.920040, -24.833754 
1488856321.701148, 1488856321.701148, -1.062744, -0.118042, -0.248169, +37.680443, -26.300411, -26.496962 
1488856321.705105, 1488856321.705105, -0.944946, -0.045166, -0.344604, +37.680443, -26.300411, -26.496962 
1488856321.709051, 1488856321.709051, -0.944946, -0.045166, -0.344604, +37.680443, -26.300411, -27.702406 
1488856321.713015, 1488856321.713015, -0.944946, -0.045166, -0.344604, +36.627586, -27.017574, -27.702406 
1488856321.716962, 1488856321.716962, -0.944946, -0.045166, -0.344604, +36.627586, -27.017574, -27.702406 
1488856321.721071, 1488856321.721071, -0.944946, -0.045166, -0.344604, +33.484276, -26.910763, -30.555799 
1488856321.725096, 1488856321.725096, -1.013672, -0.030029, -0.264038, +33.484276, -26.910763, -30.555799 
1488856321.728846, 1488856321.728846, -1.013672, -0.030029, -0.264038, +33.484276, -26.910763, -30.555799 
1488856321.732596, 1488856321.732596, -1.013672, -0.030029, -0.264038, +30.112083, -28.436642, -35.163956 
1488856321.736552, 1488856321.736552, -1.013672, -0.030029, -0.264038, +30.112083, -28.436642, -35.163956 
1488856321.740503, 1488856321.740503, -1.013672, -0.030029, -0.264038, +30.112083, -28.436642, -35.163956 
1488856321.744495, 1488856321.744495, -1.024292, +0.026733, -0.287231, +25.320824, -29.230099, -38.307266 
1488856321.748450, 1488856321.748450, -1.024292, +0.026733, -0.287231, +25.320824, -29.230099, -38.307266 
1488856321.752400, 1488856321.752400, -1.024292, +0.026733, -0.287231, +25.320824, -29.230099, -38.307266 
1488856321.756198, 1488856321.756198, -1.024292, +0.026733, -0.287231, +23.932274, -29.504757, -39.756851 
1488856321.759955, 1488856321.759955, -1.024292, +0.026733, -0.287231, +23.932274, -29.504757, -39.756851 
1488856321.763715, 1488856321.763715, -1.150024, -0.013916, -0.224365, +23.932274, -33.411007, -41.099625 
1488856321.767476, 1488856321.767476, -1.150024, -0.013916, -0.224365, +19.385155, -30.038815, -41.099625 
1488856321.771230, 1488856321.771230, -1.150024, -0.013916, -0.224365, +19.385155, -30.038815, -41.099625 
1488856321.775135, 1488856321.775135, -1.150024, -0.013916, -0.224365, +16.150291, -31.045895, -44.029312 
1488856321.778891, 1488856321.778891, -1.150024, -0.013916, -0.224365, +16.150291, -31.045895, -44.029312 
1488856321.782639, 1488856321.782639, -1.150024, +0.017334, -0.258789, +16.150291, -31.045895, -44.029312 
1488856321.788283, 1488856321.788283, -1.254272, +0.011841, -0.258789, +12.457665, -33.075314, -48.057632 
1488856321.793055, 1488856321.793055, -1.254272, +0.011841, -0.258789, +12.457665, -33.075314, -48.057632 
1488856321.796988, 1488856321.796988, -1.254272, +0.011841, -0.258789, +11.709985, -36.783199, -53.031998 
1488856321.800904, 1488856321.800904, -1.254272, +0.011841, -0.258789, +11.709985, -36.783199, -53.031998 
1488856321.804877, 1488856321.804877, -1.225952, +0.121338, -0.291626, +11.709985, -36.783199, -53.031998 
1488856321.808801, 1488856321.808801, -1.225952, +0.121338, -0.291626, +11.252221, -40.918331, -57.991104 
1488856321.812728, 1488856321.812728, -1.225952, +0.121338, -0.291626, +11.252221, -40.918331, -57.991104 
1488856321.816692, 1488856321.816692, -1.225952, +0.121338, -0.291626, +11.252221, -40.918331, -57.991104 
1488856321.820605, 1488856321.820605, -1.225952, +0.121338, -0.291626, +11.587914, -44.397335, -64.170914 
1488856321.824544, 1488856321.824544, -1.357178, +0.112915, -0.371460, +11.587914, -44.397335, -64.170914 
1488856321.828469, 1488856321.828469, -1.357178, +0.112915, -0.371460, +11.587914, -44.397335, -71.983414 
1488856321.832559, 1488856321.832559, -1.357178, +0.112915, -0.371460, +8.093652, -48.425655, -71.632462 
1488856321.836515, 1488856321.836515, -1.357178, +0.112915, -0.371460, +8.093652, -48.425655, -71.632462 
1488856321.840692, 1488856321.840692, -1.357178, +0.112915, -0.371460, +6.689843, -53.689938, -78.529434 
1488856321.844950, 1488856321.844950, -1.444458, +0.031982, -0.408203, +6.689843, -53.689938, -78.529434 
1488856321.848901, 1488856321.848901, -1.444458, +0.031982, -0.408203, +6.689843, -53.689938, -78.529434 
1488856321.852855, 1488856321.852855, -1.444458, +0.031982, -0.408203, +7.071313, -59.274654, -85.777359 
1488856321.856811, 1488856321.856811, -1.444458, +0.031982, -0.408203, +7.071313, -59.274654, -85.777359 
1488856321.860755, 1488856321.860755, -1.444458, +0.031982, -0.408203, +7.071313, -59.274654, -85.777359 
1488856321.864714, 1488856321.864714, -1.482544, +0.083374, -0.478516, +10.626611, -65.317131, -91.529922 
1488856321.868666, 1488856321.868666, -1.482544, +0.083374, -0.478516, +10.626611, -65.317131, -91.529922 
1488856321.872620, 1488856321.872620, -1.482544, +0.083374, -0.478516, +10.626611, -69.223381, -97.679214 
1488856321.876399, 1488856321.876399, -1.482544, +0.083374, -0.478516, +9.665307, -71.893669, -97.679214 
1488856321.880155, 1488856321.880155, -1.482544, +0.083374, -0.478516, +9.665307, -71.893669, -97.679214 
1488856321.883912, 1488856321.883912, -1.603149, +0.020630, -0.721191, +13.571557, -77.920891, -103.004532 
1488856321.887674, 1488856321.887674, -1.603149, +0.020630, -0.721191, +14.654931, -77.920891, -103.004532 
1488856321.891429, 1488856321.891429, -1.603149, +0.020630, -0.721191, +14.654931, -77.920891, -103.004532 
1488856321.895336, 1488856321.895336, -1.603149, +0.020630, -0.721191, +22.513206, -82.910515, -107.048111 
1488856321.899095, 1488856321.899095, -1.603149, +0.020630, -0.721191, +22.513206, -82.910515, -107.048111 
1488856321.902843, 1488856321.902843, -1.604858, +0.007812, -0.804199, +22.513206, -82.910515, -107.048111 
1488856321.906879, 1488856321.906879, -1.604858, +0.007812, -0.804199, +35.269554, -86.450554, -110.237198 
1488856321.910824, 1488856321.910824, -1.604858, +0.007812, -0.804199, +35.269554, -86.450554, -110.237198 
1488856321.914786, 1488856321.914786, -1.604858, +0.007812, -0.804199, +35.269554, -86.450554, -110.237198 
1488856321.918736, 1488856321.918736, -1.604858, +0.007812, -0.804199, +51.153954, -89.792229, -110.389786 
1488856321.922692, 1488856321.922692, -1.755859, +0.301514, -0.580933, +51.153954, -89.792229, -110.389786 
1488856321.926455, 1488856321.926455, -1.755859, +0.301514, -0.580933, +51.153954, -89.792229, -110.389786 
1488856321.930204, 1488856321.930204, -1.755859, +0.301514, -0.580933, +61.362083, -93.133904, -109.977798 
1488856321.934009, 1488856321.934009, -1.755859, +0.301514, -0.580933, +61.362083, -93.133904, -109.977798 
1488856321.937955, 1488856321.937955, -1.755859, +0.301514, -0.580933, +61.362083, -97.040154, -117.576675 
1488856321.941907, 1488856321.941907, -1.755859, +0.650635, -1.033447, +66.702660, -97.421623, -117.576675 
1488856321.945903, 1488856321.945903, -1.953857, +0.650635, -1.033447, +66.702660, -97.421623, -117.576675 
1488856321.949857, 1488856321.949857, -1.953857, +0.650635, -1.033447, +73.080833, -98.901726, -124.672012 
1488856321.953810, 1488856321.953810, -1.953857, +0.650635, -1.033447, +73.080833, -98.901726, -124.672012 
1488856321.957760, 1488856321.957760, -1.953857, +0.650635, -1.033447, +73.080833, -98.901726, -124.672012 
1488856321.961896, 1488856321.961896, -1.953857, +0.770752, -1.010498, +97.601707, -100.564934, -120.475845 
1488856321.966141, 1488856321.966141, -1.855835, +0.770752, -1.010498, +97.601707, -100.564934, -120.475845 
1488856321.970096, 1488856321.970096, -1.855835, +0.770752, -1.010498, +97.601707, -100.564934, -108.757095 
1488856321.974045, 1488856321.974045, -1.855835, +0.770752, -1.010498, +132.193390, -101.190544, -108.650284 
1488856321.977795, 1488856321.977795, -1.855835, +0.770752, -1.010498, +132.193390, -101.190544, -108.650284 
1488856321.981659, 1488856321.981659, -1.855835, +0.260620, -0.805786, +132.193390, -104.806877, -100.059586 
1488856321.985564, 1488856321.985564, -2.032104, +0.260620, -0.805786, +163.534943, -104.806877, -100.059586 
1488856321.989517, 1488856321.989517, -2.032104, +0.260620, -0.805786, +163.534943, -104.806877, -100.059586 
1488856321.993461, 1488856321.993461, -2.032104, +0.260620, -0.805786, +168.845001, -112.710930, -96.885757 
1488856321.997214, 1488856321.997214, -2.032104, +0.260620, -0.805786, +168.845001, -112.710930, -96.885757 
1488856322.000961, 1488856322.000961, -2.032104, +0.260620, -0.764160, +168.845001, -112.710930, -96.885757 
1488856322.004723, 1488856322.004723, -1.760620, +0.469360, -0.764160, +142.981354, -120.996452, -96.534805 
1488856322.008477, 1488856322.008477, -1.760620, +0.469360, -0.764160, +142.981354, -120.996452, -96.534805 
1488856322.012238, 1488856322.012238, -1.760620, +0.469360, -0.764160, +142.981354, -120.996452, -96.534805 
1488856322.016146, 1488856322.016146, -1.760620, +0.469360, -0.764160, +94.427879, -121.286369, -98.945694 
1488856322.019904, 1488856322.019904, -1.760620, +0.469360, -0.764160, +94.427879, -121.286369, -98.945694 
1488856322.023792, 1488856322.023792, -1.395264, +0.517700, -0.748169, +94.427879, -121.286369, -98.945694 
1488856322.027546, 1488856322.027546, -1.395264, +0.517700, -0.748169, +38.473900, -115.213371, -101.631241 
1488856322.031303, 1488856322.031303, -1.395264, +0.517700, -0.748169, +38.473900, -115.213371, -101.631241 
1488856322.035173, 1488856322.035173, -1.395264, +0.517700, -0.748169, +38.473900, -115.213371, -101.631241 
1488856322.039125, 1488856322.039125, -1.395264, +0.517700, -0.748169, -5.608741, -107.950188, -103.996353 
1488856322.043078, 1488856322.043078, -0.757812, -0.052979, -0.429565, -5.608741, -107.950188, -103.996353 
1488856322.047031, 1488856322.047031, -0.757812, -0.052979, -0.429565, -5.608741, -84.558464, -101.966934 
1488856322.050979, 1488856322.050979, -0.757812, -0.052979, -0.429565, -39.620583, -84.558464, -101.966934 
1488856322.054856, 1488856322.054856, -0.757812, -0.052979, -0.429565, -39.620583, -84.558464, -101.966934 
1488856322.058608, 1488856322.058608, -0.757812, -0.052979, -0.429565, -33.257668, -40.933590, -86.677628 
1488856322.062361, 1488856322.062361, -1.130371, -1.383545, -0.039429, -33.257668, -40.933590, -86.677628 
1488856322.066351, 1488856322.066351, -1.130371, -1.383545, -0.039429, -33.257668, -40.933590, -86.677628 
1488856322.070293, 1488856322.070293, -1.130371, -1.383545, -0.039429, +10.077294, -14.322262, -55.824356 
1488856322.074233, 1488856322.074233, -1.130371, -1.383545, -0.039429, +10.077294, -14.322262, -55.824356 
1488856322.077988, 1488856322.077988, -1.130371, -1.383545, -0.039429, +10.077294, -14.322262, -55.824356 
1488856322.081845, 1488856322.081845, -0.660278, -0.067627, -0.328735, +50.162132, -12.552242, -20.118788 
1488856322.085977, 1488856322.085977, -0.660278, -0.067627, -0.328735, +50.162132, -12.552242, -20.118788 
1488856322.089925, 1488856322.089925, -0.660278, -0.067627, -0.328735, +50.162132, -12.552242, +3.318712 
1488856322.093880, 1488856322.093880, -0.660278, -0.067627, -0.328735, +57.471092, -7.516841, +4.020617 
1488856322.097827, 1488856322.097827, -0.660278, -0.067627, -0.328735, +57.471092, -7.516841, +4.020617 
1488856322.101760, 1488856322.101760, -0.165527, +0.486938, -0.170898, +48.956688, -5.212764, +17.295763 
1488856322.105714, 1488856322.105714, -0.165527, +0.486938, -0.170898, +48.956688, -5.212764, +17.295763 
1488856322.109654, 1488856322.109654, -0.165527, +0.486938, -0.170898, +48.956688, -5.212764, +17.295763 
1488856322.113582, 1488856322.113582, -0.165527, +0.486938, -0.170898, +32.156761, +2.416630, +29.624865 
1488856322.117325, 1488856322.117325, -0.165527, +0.486938, -0.170898, +32.156761, +2.416630, +29.624865 
1488856322.121075, 1488856322.121075, +0.120605, +0.664185, -0.024048, +32.156761, +2.416630, +29.624865 
1488856322.124847, 1488856322.124847, +0.120605, +0.664185, -0.024048, +6.659326, +20.208378, +45.219345 
1488856322.128710, 1488856322.128710, +0.120605, +0.664185, -0.024048, +6.659326, +20.208378, +45.219345 
1488856322.132469, 1488856322.132469, +0.120605, +0.664185, -0.024048, +6.659326, +20.208378, +45.219345 
1488856322.136353, 1488856322.136353, +0.120605, +0.664185, -0.024048, -26.787941, +41.952152, +60.676498 
1488856322.140109, 1488856322.140109, +0.120605, +0.257935, -0.065186, -26.787941, +41.952152, +60.676498 
1488856322.144019, 1488856322.144019, -0.132935, +0.274414, -0.065186, -26.787941, +41.952152, +60.676498 
1488856322.147972, 1488856322.147972, -0.132935, +0.274414, -0.065186, -51.903908, +62.887211, +74.256821 
1488856322.151917, 1488856322.151917, -0.132935, +0.274414, -0.065186, -51.903908, +62.887211, +74.256821 
1488856322.155915, 1488856322.155915, -0.132935, +0.274414, -0.065186, -51.903908, +79.854988, +88.310165 
1488856322.159869, 1488856322.159869, -0.132935, +0.274414, -0.049438, -64.339821, +79.854988, +88.310165 
1488856322.163819, 1488856322.163819, -0.339233, +0.079956, -0.049438, -64.339821, +79.854988, +88.310165 
1488856322.167771, 1488856322.167771, -0.339233, +0.079956, -0.049438, -67.437355, +91.634773, +102.424545 
1488856322.171718, 1488856322.171718, -0.339233, +0.079956, -0.049438, -67.437355, +91.634773, +102.424545 
1488856322.175577, 1488856322.175577, -0.339233, +0.079956, -0.049438, -67.437355, +91.634773, +102.424545 
1488856322.179323, 1488856322.179323, -0.339233, +0.079956, -0.049438, -65.850441, +100.698494, +117.347641 
1488856322.183129, 1488856322.183129, -0.373413, +0.085205, -0.088867, -65.850441, +100.698494, +117.347641 
1488856322.186897, 1488856322.186897, -0.373413, +0.085205, -0.088867, -65.850441, +100.698494, +117.347641 
1488856322.190652, 1488856322.190652, -0.373413, +0.085205, -0.088867, -63.882057, +107.641243, +133.003159 
1488856322.194527, 1488856322.194527, -0.373413, +0.085205, -0.088867, -63.882057, +107.641243, +133.003159 
1488856322.198443, 1488856322.198443, -0.373413, +0.085205, -0.088867, -63.882057, +107.641243, +133.003159 
1488856322.202948, 1488856322.202948, -0.434448, +0.184937, -0.123047, -62.508766, +115.118050, +149.543686 
1488856322.206952, 1488856322.206952, -0.434448, +0.184937, -0.123047, -62.508766, +115.118050, +149.543686 
1488856322.210903, 1488856322.210903, -0.434448, +0.184937, -0.123047, -62.905495, +124.135994, +164.756699 
1488856322.214899, 1488856322.214899, -0.434448, +0.184937, -0.123047, -62.905495, +124.135994, +164.756699 
1488856322.218842, 1488856322.218842, -0.434448, +0.184937, -0.123047, -62.905495, +124.135994, +164.756699 
1488856322.222788, 1488856322.222788, -0.552124, +0.430420, -0.169922, -70.290749, +132.879272, +179.038925 
1488856322.226750, 1488856322.226750, -0.552124, +0.430420, -0.169922, -70.290749, +132.879272, +179.038925 
1488856322.230706, 1488856322.230706, -0.552124, +0.430420, -0.169922, -70.290749, +132.879272, +179.038925 
1488856322.234619, 1488856322.234619, -0.552124, +0.430420, -0.169922, -82.146828, +140.111938, +192.054672 
1488856322.238374, 1488856322.238374, -0.552124, +0.430420, -0.169922, -82.146828, +140.111938, +192.054672 
1488856322.242130, 1488856322.242130, -0.730835, +0.463745, -0.283936, -82.146828, +140.111938, +192.054672 
1488856322.245920, 1488856322.245920, -0.730835, +0.463745, -0.283936, -88.784401, +147.054688, +204.429550 
1488856322.249679, 1488856322.249679, -0.730835, +0.463745, -0.283936, -88.784401, +147.054688, +204.429550 
1488856322.253595, 1488856322.253595, -0.730835, +0.463745, -0.283936, -88.784401, +147.054688, +215.324326 
1488856322.257553, 1488856322.257553, -0.730835, +0.463745, -0.283936, -95.544044, +152.837769, +215.324326 
1488856322.261495, 1488856322.261495, -0.960205, +0.362183, -0.245972, -95.544044, +152.837769, +215.324326 
1488856322.265381, 1488856322.265381, -0.960205, +0.362183, -0.245972, -103.905861, +159.002319, +228.111191 
1488856322.269131, 1488856322.269131, -0.960205, +0.362183, -0.245972, -103.905861, +159.002319, +228.111191 
1488856322.272895, 1488856322.272895, -0.960205, +0.362183, -0.245972, -103.905861, +159.002319, +228.111191 
1488856322.276963, 1488856322.276963, -0.960205, +0.362183, -0.245972, -112.572853, +163.869873, +241.355820 
1488856322.280914, 1488856322.280914, -1.299072, +0.286011, -0.269287, -112.572853, +163.869873, +241.355820 
1488856322.284906, 1488856322.284906, -1.299072, +0.286011, -0.269287, -112.572853, +163.869873, +241.355820 
1488856322.288848, 1488856322.288848, -1.299072, +0.286011, -0.269287, -119.332497, +167.165771, +254.463120 
1488856322.292801, 1488856322.292801, -1.299072, +0.286011, -0.269287, -119.332497, +167.165771, +254.463120 
1488856322.296682, 1488856322.296682, -1.299072, +0.286011, -0.269287, -119.332497, +167.165771, +254.463120 
1488856322.300436, 1488856322.300436, -1.670898, +0.328979, -0.362549, -123.330299, +166.738525, +268.897949 
1488856322.304402, 1488856322.304402, -1.670898, +0.328979, -0.362549, -123.330299, +166.738525, +268.897949 
1488856322.308330, 1488856322.308330, -1.670898, +0.328979, -0.362549, -127.236549, +164.419189, +282.295166 
1488856322.312367, 1488856322.312367, -1.670898, +0.328979, -0.362549, -129.052338, +164.419189, +282.295166 
1488856322.316563, 1488856322.316563, -1.670898, +0.328979, -0.362549, -129.052338, +164.419189, +282.295166 
1488856322.320320, 1488856322.320320, -2.166626, +0.147827, -0.527100, -141.946014, +162.954346, +292.655884 
1488856322.324148, 1488856322.324148, -2.166626, +0.147827, -0.527100, -141.946014, +162.954346, +292.655884 
1488856322.328095, 1488856322.328095, -2.166626, +0.147827, -0.527100, -141.946014, +162.954346, +292.655884 
1488856322.332050, 1488856322.332050, -2.166626, +0.147827, -0.527100, -152.321991, +162.572876, +301.887451 
1488856322.336012, 1488856322.336012, -2.166626, +0.147827, -0.527100, -152.321991, +162.572876, +301.887451 
1488856322.339966, 1488856322.339966, -2.905151, -0.369629, -0.634399, -152.321991, +162.572876, +301.887451 
1488856322.343888, 1488856322.343888, -2.905151, -0.369629, -0.634399, -154.107269, +160.665527, +302.680908 
1488856322.347637, 1488856322.347637, -2.905151, -0.369629, -0.634399, -154.107269, +160.665527, +302.680908 
1488856322.351387, 1488856322.351387, -2.905151, -0.369629, -0.634399, -154.107269, +160.665527, +290.611206 
1488856322.355189, 1488856322.355189, -2.905151, -0.369629, -0.634399, -145.699677, +155.172363, +290.611206 
1488856322.358949, 1488856322.358949, -3.123901, -0.867432, -0.461914, -145.699677, +155.172363, +290.611206 
1488856322.362696, 1488856322.362696, -3.120117, -0.867432, -0.461914, -145.699677, +135.641113, +265.937744 
1488856322.366494, 1488856322.366494, -3.120117, -0.867432, -0.461914, -135.155853, +136.800781, +265.937744 
1488856322.370248, 1488856322.370248, -3.120117, -0.867432, -0.461914, -135.155853, +136.800781, +265.937744 
1488856322.374201, 1488856322.374201, -3.120117, -0.867432, -0.461914, -118.661110, +116.201424, +232.429428 
1488856322.378157, 1488856322.378157, -3.120117, -0.867432, -0.773315, -118.661110, +116.201424, +232.429428 
1488856322.382108, 1488856322.382108, -2.343384, -1.596436, -0.773315, -118.661110, +116.201424, +232.429428 
1488856322.386106, 1488856322.386106, -2.343384, -1.596436, -0.773315, -84.634010, +116.628670, +196.678085 
1488856322.390055, 1488856322.390055, -2.343384, -1.596436, -0.773315, -84.634010, +116.628670, +196.678085 
1488856322.394013, 1488856322.394013, -2.343384, -1.596436, -0.773315, -84.634010, +116.628670, +196.678085 
1488856322.397963, 1488856322.397963, -2.343384, -1.596436, +0.648071, -75.020973, +102.682137, +139.900131 
1488856322.401916, 1488856322.401916, -2.350098, -2.795166, +0.648071, -75.020973, +102.682137, +139.900131 
1488856322.405903, 1488856322.405903, -2.350098, -2.795166, +0.648071, -75.020973, +102.682137, +73.432846 
1488856322.409857, 1488856322.409857, -2.350098, -2.795166, +0.648071, -36.400978, +63.924809, +73.432846 
1488856322.413810, 1488856322.413810, -2.350098, -2.795166, +0.648071, -36.400978, +63.924809, +73.432846 
1488856322.417569, 1488856322.417569, -2.350098, -2.795166, +0.710571, +6.567773, +15.295048, +6.843493 
1488856322.421411, 1488856322.421411, -2.052002, -2.203369, +0.706055, +5.484399, +15.295048, +6.843493 
1488856322.425332, 1488856322.425332, -2.052002, -2.203369, +0.706055, +5.484399, +15.295048, +6.843493 
1488856322.429421, 1488856322.429421, -2.052002, -2.203369, +0.706055, -1.763526, -31.045895, -62.828140 
1488856322.433451, 1488856322.433451, -2.052002, -2.203369, +0.706055, -1.763526, -31.045895, -62.828140 
1488856322.437413, 1488856322.437413, -2.052002, -2.203369, +0.206055, -1.763526, -31.045895, -62.828140 
1488856322.441367, 1488856322.441367, -1.966187, -1.633911, +0.187744, -9.011451, -61.044674, -123.420792 
1488856322.445329, 1488856322.445329, -1.966187, -1.633911, +0.187744, -9.011451, -61.044674, -123.420792 
1488856322.449560, 1488856322.449560, -1.966187, -1.633911, +0.187744, -9.011451, -61.044674, -173.698502 
1488856322.453334, 1488856322.453334, -1.966187, -1.633911, +0.187744, -10.293189, -80.408073, -173.698502 
1488856322.457081, 1488856322.457081, -1.966187, -1.633911, +0.187744, -10.293189, -80.408073, -173.698502 
1488856322.460818, 1488856322.460818, -1.442749, +0.344238, -1.085815, -10.293189, -80.270744, -186.500626 
1488856322.464628, 1488856322.464628, -1.442749, +0.344238, -1.085815, -14.001075, -80.270744, -186.500626 
1488856322.468369, 1488856322.468369, -1.442749, +0.344238, -1.085815, -14.001075, -80.270744, -186.500626 
1488856322.472110, 1488856322.472110, -1.442749, +0.344238, -1.085815, -64.339821, -80.804802, -163.658218 
1488856322.475861, 1488856322.475861, -1.442749, +0.344238, -1.085815, -64.339821, -80.804802, -163.658218 
1488856322.479604, 1488856322.479604, -0.368408, +3.336548, -1.554810, -64.339821, -80.804802, -163.658218 
1488856322.483351, 1488856322.483351, -0.368408, +3.336548, -1.554810, +45.340355, -50.043087, -72.517471 
1488856322.487099, 1488856322.487099, -0.368408, +3.336548, -1.554810, +45.340355, -50.043087, -72.517471 
1488856322.490845, 1488856322.490845, -0.368408, +3.336548, -1.554810, +45.340355, -50.043087, -72.517471 
1488856322.494751, 1488856322.494751, -0.368408, +3.336548, -1.554810, +205.282990, -14.093380, -32.173233 
1488856322.498503, 1488856322.498503, -2.925903, -0.595947, +1.346924, +205.282990, -14.093380, -32.173233 
1488856322.502256, 1488856322.502256, -2.925903, -0.595947, +1.346924, +205.282990, -14.093380, -32.173233 
1488856322.506246, 1488856322.506246, -2.925903, -0.595947, +1.346924, +66.092308, -36.508541, -108.726578 
1488856322.510190, 1488856322.510190, -2.925903, -0.595947, +1.346924, +66.092308, -36.508541, -108.726578 
1488856322.514103, 1488856322.514103, -2.925903, -0.595947, +1.346924, +66.092308, -36.508541, -108.726578 
1488856322.517854, 1488856322.517854, -1.592651, +0.037964, -0.629028, -82.833473, -52.988033, -183.342056 
1488856322.521606, 1488856322.521606, -1.592651, +0.037964, -0.629028, -82.833473, -52.988033, -183.342056 
1488856322.525528, 1488856322.525528, -1.592651, +0.037964, -0.629028, -82.833473, -52.988033, -183.342056 
1488856322.529475, 1488856322.529475, -1.592651, +0.037964, -0.629028, -94.659035, -42.505245, -186.637955 
1488856322.533473, 1488856322.533473, -1.592651, +0.037964, -0.629028, -94.659035, -42.505245, -186.637955 
1488856322.537419, 1488856322.537419, -1.592651, -0.861450, -0.254761, -50.149147, -18.671017, -166.420059 
1488856322.541366, 1488856322.541366, -1.240723, -0.861450, -0.254761, -50.149147, -18.671017, -166.420059 
1488856322.545329, 1488856322.545329, -1.240723, -0.861450, -0.254761, -50.149147, -18.671017, -166.420059 
1488856322.549276, 1488856322.549276, -1.240723, -0.861450, -0.254761, -7.058326, -12.414913, -154.335098 
1488856322.553256, 1488856322.553256, -1.240723, -0.861450, -0.254761, -7.058326, -12.414913, -154.335098 
1488856322.557281, 1488856322.557281, -1.240723, -0.407837, -0.630737, -7.058326, -12.414913, -154.335098 
1488856322.561404, 1488856322.561404, -1.301392, -0.407837, -0.630737, +36.108788, -28.757076, -142.555313 
1488856322.566064, 1488856322.566064, -1.301392, -0.407837, -0.630737, +36.108788, -28.757076, -142.555313 
1488856322.569806, 1488856322.569806, -1.301392, -0.407837, -0.630737, +59.546288, -39.651852, -120.674210 
1488856322.573723, 1488856322.573723, -1.301392, -0.407837, -0.630737, +58.813866, -39.651852, -120.674210 
1488856322.577475, 1488856322.577475, -0.851562, -0.409424, -0.399292, +58.813866, -39.651852, -120.674210 
1488856322.581221, 1488856322.581221, -0.851562, -0.409424, -0.399292, +68.136986, -41.666012, -99.296646 
1488856322.585021, 1488856322.585021, -0.851562, -0.409424, -0.399292, +68.136986, -41.666012, -99.296646 
1488856322.588765, 1488856322.588765, -0.851562, -0.409424, -0.399292, +68.136986, -41.666012, -99.296646 
1488856322.592518, 1488856322.592518, -0.851562, -0.409424, -0.399292, +69.693382, -35.364132, -80.772476 
1488856322.596314, 1488856322.596314, -0.851562, -0.409424, -0.177612, +69.693382, -35.364132, -80.772476 
1488856322.600062, 1488856322.600062, -1.147217, -0.178955, -0.177612, +69.693382, -35.364132, -80.772476 
1488856322.603855, 1488856322.603855, -1.147217, -0.178955, -0.177612, +69.388206, -31.259518, -68.626480 
1488856322.607601, 1488856322.607601, -1.147217, -0.178955, -0.177612, +69.388206, -31.259518, -68.626480 
1488856322.611342, 1488856322.611342, -1.147217, -0.178955, -0.177612, +69.388206, -31.259518, -68.626480 
1488856322.615313, 1488856322.615313, -1.147217, -0.178955, -0.177612, +56.738670, -29.031734, -60.951309 
1488856322.619068, 1488856322.619068, -1.409302, +0.306763, -0.290161, +56.738670, -29.031734, -60.951309 
1488856322.622821, 1488856322.622821, -1.409302, +0.306763, -0.290161, +56.738670, -29.031734, -60.951309 
1488856322.626884, 1488856322.626884, -1.409302, +0.306763, -0.290161, +33.438499, -26.758175, -60.600357 
1488856322.630831, 1488856322.630831, -1.409302, +0.306763, -0.290161, +33.438499, -26.758175, -60.600357 
1488856322.634790, 1488856322.634790, -1.409302, +0.306763, -0.290161, +33.438499, -22.851925, -64.521866 
1488856322.638735, 1488856322.638735, -1.201538, +0.100220, -0.240723, +10.321435, -23.050289, -64.521866 
1488856322.642687, 1488856322.642687, -1.201538, +0.100220, -0.240723, +10.321435, -23.050289, -64.521866 
1488856322.646648, 1488856322.646648, -1.201538, +0.100220, -0.240723, -0.069800, -20.654659, -62.217789 
1488856322.650593, 1488856322.650593, -1.201538, +0.100220, -0.240723, -0.069800, -20.654659, -62.217789 
1488856322.654490, 1488856322.654490, -1.201538, +0.100220, -0.240723, -0.069800, -20.654659, -62.217789 
1488856322.658230, 1488856322.658230, -1.112793, -0.317627, -0.436768, +8.307275, -20.929317, -52.833633 
1488856322.661979, 1488856322.661979, -1.112793, -0.317627, -0.436768, +8.307275, -20.929317, -52.833633 
1488856322.665922, 1488856322.665922, -1.112793, -0.317627, -0.436768, +8.307275, -20.929317, -52.833633 
1488856322.669845, 1488856322.669845, -1.112793, -0.317627, -0.436768, +25.107201, -19.968014, -39.039688 
1488856322.673788, 1488856322.673788, -1.112793, -0.317627, -0.436768, +25.107201, -19.968014, -39.039688 
1488856322.677738, 1488856322.677738, -1.143066, -0.295044, -0.280884, +25.107201, -19.968014, -23.414686 
1488856322.681867, 1488856322.681867, -1.143066, -0.295044, -0.280884, +42.547997, -20.166378, -26.512220 
1488856322.686132, 1488856322.686132, -1.143066, -0.295044, -0.280884, +42.547997, -20.166378, -26.512220 
1488856322.690083, 1488856322.690083, -1.143066, -0.295044, -0.280884, +49.490746, -19.983273, -19.386366 
1488856322.694074, 1488856322.694074, -1.143066, -0.295044, -0.280884, +49.490746, -19.983273, -19.386366 
1488856322.698021, 1488856322.698021, -1.035400, +0.148926, -0.376221, +49.490746, -19.983273, -19.386366 
1488856322.701974, 1488856322.701974, -1.035400, +0.148926, -0.376221, +47.186668, -17.633419, -16.868666 
1488856322.705933, 1488856322.705933, -1.035400, +0.148926, -0.376221, +47.186668, -17.633419, -16.868666 
1488856322.709881, 1488856322.709881, -1.035400, +0.148926, -0.376221, +47.186668, -17.633419, -16.868666 
1488856322.713835, 1488856322.713835, -1.035400, +0.148926, -0.376221, +35.284813, -14.581661, -15.358046 
1488856322.717591, 1488856322.717591, -1.195312, -0.141113, -0.206177, +35.284813, -14.581661, -15.358046 
1488856322.721452, 1488856322.721452, -1.195312, -0.141113, -0.206177, +35.284813, -14.581661, -15.358046 
1488856322.725236, 1488856322.725236, -1.195312, -0.141113, -0.206177, +28.616722, -14.459591, -15.464857 
1488856322.728992, 1488856322.728992, -1.195312, -0.141113, -0.206177, +28.616722, -14.459591, -15.464857 
1488856322.732744, 1488856322.732744, -1.195312, -0.141113, -0.206177, +28.616722, -14.459591, -13.191298 
1488856322.736655, 1488856322.736655, -1.064575, -0.158691, -0.332764, +34.109886, -17.282467, -13.191298 
1488856322.740399, 1488856322.740399, -1.064575, -0.158691, -0.332764, +34.109886, -17.282467, -13.191298 
1488856322.744230, 1488856322.744230, -1.064575, -0.158691, -0.332764, +39.175804, -18.915157, -10.826185 
1488856322.748180, 1488856322.748180, -1.064575, -0.158691, -0.332764, +39.175804, -18.915157, -10.826185 
1488856322.752135, 1488856322.752135, -1.064575, -0.158691, -0.332764, +39.175804, -18.915157, -10.826185 
1488856322.756130, 1488856322.756130, -0.993530, -0.052856, -0.356812, +42.319115, -20.120602, -9.803846 
1488856322.760080, 1488856322.760080, -0.993530, -0.052856, -0.356812, +42.319115, -20.120602, -9.803846 
1488856322.764008, 1488856322.764008, -0.993530, -0.052856, -0.356812, +42.319115, -20.120602, -9.803846 
1488856322.767759, 1488856322.767759, -0.993530, -0.052856, -0.356812, +41.495140, -21.509151, -9.925917 
1488856322.771893, 1488856322.771893, -0.993530, -0.052856, -0.356812, +41.495140, -21.509151, -9.925917 
1488856322.775849, 1488856322.775849, -0.987061, -0.014771, -0.387085, +41.495140, -21.509151, -9.925917 
1488856322.779592, 1488856322.779592, -0.987061, -0.014771, -0.387085, +39.816673, -21.356564, -10.932997 
1488856322.783341, 1488856322.783341, -0.987061, -0.014771, -0.387085, +39.816673, -21.356564, -10.932997 
1488856322.787084, 1488856322.787084, -0.987061, -0.014771, -0.387085, +39.816673, -21.356564, -12.825087 
1488856322.790825, 1488856322.790825, -0.987061, -0.014771, -0.387085, +39.130028, -22.562008, -12.825087 
1488856322.794618, 1488856322.794618, -0.987061, -0.014771, -0.324585, +39.130028, -22.562008, -12.825087 
1488856322.798367, 1488856322.798367, -1.011597, -0.105225, -0.323486, +39.130028, -22.562008, -15.998915 
1488856322.802110, 1488856322.802110, -1.011597, -0.105225, -0.323486, +38.992699, -23.447018, -15.998915 
1488856322.805876, 1488856322.805876, -1.011597, -0.105225, -0.323486, +38.992699, -23.447018, -15.998915 
1488856322.809625, 1488856322.809625, -1.011597, -0.105225, -0.323486, +39.130028, -25.522213, -20.286634 
1488856322.813430, 1488856322.813430, -1.011597, -0.105225, -0.323486, +39.130028, -25.522213, -20.286634 
1488856322.817186, 1488856322.817186, -0.944092, +0.031006, -0.325806, +39.130028, -25.522213, -20.286634 
1488856322.820944, 1488856322.820944, -0.944092, +0.031006, -0.325806, +37.604149, -26.636105, -23.704603 
1488856322.824852, 1488856322.824852, -0.944092, +0.031006, -0.325806, +37.604149, -26.636105, -23.704603 
1488856322.828771, 1488856322.828771, -0.944092, +0.031006, -0.325806, +37.604149, -26.636105, -23.704603 
1488856322.832698, 1488856322.832698, -0.944092, +0.031006, -0.325806, +35.879906, -27.292233, -27.732924 
1488856322.836621, 1488856322.836621, -1.015015, +0.017944, -0.266113, +35.879906, -27.292233, -27.732924 
1488856322.840538, 1488856322.840538, -1.015015, +0.017944, -0.266113, +35.879906, -27.292233, -27.732924 
1488856322.844498, 1488856322.844498, -1.015015, +0.017944, -0.266113, +33.118065, -29.855709, -34.233170 
1488856322.848413, 1488856322.848413, -1.015015, +0.017944, -0.266113, +33.118065, -29.855709, -34.233170 
1488856322.852333, 1488856322.852333, -1.015015, +0.017944, -0.266113, +33.118065, -29.855709, -41.069107 
1488856322.856294, 1488856322.856294, -1.022339, +0.062988, -0.257446, +28.113182, -32.266598, -41.069107 
1488856322.860220, 1488856322.860220, -1.022339, +0.062988, -0.257446, +28.113182, -32.266598, -41.069107 
1488856322.864150, 1488856322.864150, -1.022339, +0.062988, -0.257446, +23.520287, -33.853512, -47.401505 
1488856322.868182, 1488856322.868182, -1.022339, +0.062988, -0.257446, +23.520287, -33.853512, -47.401505 
1488856322.872107, 1488856322.872107, -1.022339, +0.062988, -0.257446, +23.520287, -33.853512, -47.401505 
1488856322.876108, 1488856322.876108, -1.113892, +0.027710, -0.275879, +19.064720, -35.303097, -51.811295 
1488856322.880142, 1488856322.880142, -1.113892, +0.027710, -0.275879, +19.064720, -35.303097, -51.811295 
1488856322.884349, 1488856322.884349, -1.113892, +0.027710, -0.275879, +19.064720, -35.303097, -51.811295 
1488856322.888303, 1488856322.888303, -1.113892, +0.027710, -0.275879, +15.997705, -37.240963, -54.145889 
1488856322.892247, 1488856322.892247, -1.113892, +0.027710, -0.275879, +15.997705, -37.240963, -54.145889 
1488856322.896201, 1488856322.896201, -1.246948, -0.106201, -0.241943, +15.997705, -41.147213, -55.107193 
1488856322.900158, 1488856322.900158, -1.246948, -0.106201, -0.241943, +13.220605, -38.660030, -55.107193 
1488856322.904122, 1488856322.904122, -1.246948, -0.106201, -0.241943, +13.220605, -38.660030, -55.107193 
1488856322.908076, 1488856322.908076, -1.246948, -0.106201, -0.241943, +13.586816, -41.147213, -57.518082 
1488856322.912022, 1488856322.912022, -1.246948, -0.106201, -0.241943, +13.586816, -41.147213, -57.518082 
1488856322.915833, 1488856322.915833, -1.269775, +0.141479, -0.249390, +13.586816, -41.147213, -57.518082 
1488856322.919588, 1488856322.919588, -1.269775, +0.141479, -0.249390, +15.158471, -44.534664, -60.417252 
1488856322.923345, 1488856322.923345, -1.269775, +0.141479, -0.249390, +15.158471, -44.534664, -60.417252 
1488856322.927104, 1488856322.927104, -1.269775, +0.141479, -0.249390, +15.158471, -44.534664, -60.417252 
1488856322.930857, 1488856322.930857, -1.269775, +0.141479, -0.249390, +12.030419, -48.517208, -65.345840 
1488856322.934766, 1488856322.934766, -1.304077, +0.161621, -0.185181, +12.030419, -48.517208, -65.345840 
1488856322.938515, 1488856322.938515, -1.304077, +0.161621, -0.185181, +12.030419, -48.517208, -65.345840 
1488856322.942267, 1488856322.942267, -1.304077, +0.161621, -0.185181, +7.483300, -53.461056, -72.364883 
1488856322.946305, 1488856322.946305, -1.304077, +0.161621, -0.185181, +7.483300, -53.461056, -72.364883 
1488856322.950259, 1488856322.950259, -1.304077, +0.161621, -0.185181, +7.483300, -53.461056, -80.101089 
1488856322.954217, 1488856322.954217, -1.304077, +0.092285, -0.444946, +1.639184, -58.832150, -80.101089 
1488856322.958162, 1488856322.958162, -1.359375, +0.092285, -0.444946, +1.639184, -58.832150, -80.101089 
1488856322.962115, 1488856322.962115, -1.359375, +0.092285, -0.444946, -1.061622, -61.792355, -87.944107 
1488856322.965949, 1488856322.965949, -1.359375, +0.092285, -0.444946, -1.061622, -61.792355, -87.944107 
1488856322.969697, 1488856322.969697, -1.359375, +0.092285, -0.444946, -1.061622, -61.792355, -87.944107 
1488856322.973508, 1488856322.973508, -1.359375, +0.092285, -0.490967, +2.157983, -65.652824, -94.108658 
1488856322.977463, 1488856322.977463, -1.443237, -0.005493, -0.490967, +2.157983, -65.652824, -94.108658 
1488856322.981404, 1488856322.981404, -1.443237, -0.005493, -0.490967, +2.157983, -65.652824, -94.108658 
1488856322.985358, 1488856322.985358, -1.443237, -0.005493, -0.490967, +7.422265, -71.451164, -98.198013 
1488856322.989307, 1488856322.989307, -1.443237, -0.005493, -0.490967, +7.422265, -71.451164, -98.198013 
1488856322.993291, 1488856322.993291, -1.443237, -0.005493, -0.653809, +7.422265, -71.451164, -98.198013 
1488856322.997239, 1488856322.997239, -1.568115, +0.029907, -0.653809, +15.921411, -78.241325, -102.394180 
1488856323.001362, 1488856323.001362, -1.568115, +0.029907, -0.653809, +15.921411, -78.241325, -102.394180 
1488856323.005711, 1488856323.005711, -1.568115, +0.029907, -0.653809, +23.825462, -84.085442, -107.963638 
1488856323.009663, 1488856323.009663, -1.568115, +0.029907, -0.653809, +23.825462, -84.085442, -107.963638 
1488856323.013584, 1488856323.013584, -1.568115, +0.149170, -0.835693, +23.825462, -84.085442, -107.963638 
1488856323.017342, 1488856323.017342, -1.685059, +0.149170, -0.835693, +33.774193, -87.884880, -113.685684 
1488856323.021194, 1488856323.021194, -1.685059, +0.149170, -0.835693, +33.774193, -87.884880, -113.685684 
1488856323.025099, 1488856323.025099, -1.685059, +0.149170, -0.835693, +33.774193, -87.884880, -113.685684 
1488856323.029046, 1488856323.029046, -1.685059, +0.149170, -0.835693, +48.636253, -92.416740, -113.990860 
1488856323.033007, 1488856323.033007, -1.685059, +0.149170, -0.723389, +48.636253, -92.416740, -113.990860 
1488856323.036764, 1488856323.036764, -1.969238, +0.377075, -0.723389, +48.636253, -92.416740, -113.990860 
1488856323.040516, 1488856323.040516, -1.969238, +0.377075, -0.723389, +61.880882, -97.742058, -114.646988 
1488856323.044277, 1488856323.044277, -1.969238, +0.377075, -0.723389, +61.880882, -97.742058, -114.646988 
1488856323.048029, 1488856323.048029, -1.969238, +0.377075, -0.723389, +61.880882, -97.742058, -114.646988 
1488856323.051788, 1488856323.051788, -1.969238, +0.377075, -0.723389, +73.614891, -101.709343, -120.918350 
1488856323.055696, 1488856323.055696, -2.165649, +0.914307, -1.261230, +73.614891, -101.709343, -120.918350 
1488856323.059450, 1488856323.059450, -2.165649, +0.914307, -1.261230, +73.614891, -101.709343, -123.588638 
1488856323.063390, 1488856323.063390, -2.165649, +0.914307, -1.261230, +91.437157, -105.401970, -123.588638 
1488856323.067339, 1488856323.067339, -2.165649, +0.914307, -1.261230, +91.437157, -105.401970, -123.588638 
1488856323.071289, 1488856323.071289, -2.165649, +0.914307, -1.261230, +124.090965, -108.056999, -114.738541 
1488856323.075282, 1488856323.075282, -2.075073, +0.621582, -0.875488, +124.090965, -108.056999, -114.738541 
1488856323.079236, 1488856323.079236, -2.075073, +0.621582, -0.875488, +124.090965, -108.056999, -114.738541 
1488856323.083232, 1488856323.083232, -2.075073, +0.621582, -0.875488, +148.367706, -106.790520, -106.056290 
1488856323.087185, 1488856323.087185, -2.075073, +0.621582, -0.875488, +148.367706, -106.790520, -106.056290 
1488856323.091131, 1488856323.091131, -2.075073, +0.621582, -0.875488, +148.367706, -106.790520, -106.056290 
1488856323.095004, 1488856323.095004, -2.021118, +0.312866, -0.816162, +149.252716, -111.017204, -104.866104 
1488856323.098759, 1488856323.098759, -2.021118, +0.312866, -0.816162, +149.252716, -111.017204, -104.866104 
1488856323.102508, 1488856323.102508, -2.021118, +0.312866, -0.816162, +149.252716, -111.017204, -104.866104 
1488856323.106444, 1488856323.106444, -2.021118, +0.312866, -0.816162, +126.272972, -119.394279, -105.796890 
1488856323.110406, 1488856323.110406, -2.021118, +0.312866, -0.816162, +126.272972, -119.394279, -105.796890 
1488856323.114367, 1488856323.114367, -1.590210, +0.341309, -0.814087, +83.304222, -122.323967, -109.184341 
1488856323.118313, 1488856323.118313, -1.590210, +0.341309, -0.814087, +82.144554, -122.323967, -109.184341 
1488856323.122408, 1488856323.122408, -1.590210, +0.341309, -0.814087, +82.144554, -122.323967, -109.184341 
1488856323.126773, 1488856323.126773, -1.590210, +0.341309, -0.814087, +30.875023, -115.137077, -112.312393 
1488856323.130720, 1488856323.130720, -1.590210, +0.341309, -0.814087, +30.875023, -115.137077, -112.312393 
1488856323.134686, 1488856323.134686, -1.202393, +0.183105, -0.614380, +30.875023, -115.137077, -112.312393 
1488856323.138628, 1488856323.138628, -1.202393, +0.183105, -0.614380, -6.539527, -104.867912, -111.717300 
1488856323.142576, 1488856323.142576, -1.202393, +0.183105, -0.614380, -6.539527, -104.867912, -111.717300 
1488856323.146357, 1488856323.146357, -1.202393, +0.183105, -0.614380, -6.539527, -104.867912, -105.445938 
1488856323.150110, 1488856323.150110, -1.202393, +0.183105, -0.614380, -33.288185, -90.600945, -105.445938 
1488856323.153895, 1488856323.153895, -0.615723, -0.604980, -0.269653, -33.288185, -90.600945, -105.445938 
1488856323.157643, 1488856323.157643, -0.615723, -0.604980, -0.269653, -33.288185, -59.350948, -86.875992 
1488856323.161398, 1488856323.161398, -0.615723, -0.604980, -0.269653, -31.502907, -57.291012, -86.875992 
1488856323.165308, 1488856323.165308, -0.615723, -0.604980, -0.269653, -31.502907, -57.291012, -86.875992 
1488856323.169062, 1488856323.169062, -0.615723, -0.604980, -0.269653, -3.579322, -28.085690, -61.241226 
1488856323.172804, 1488856323.172804, -1.005737, -0.861450, -0.020752, -3.579322, -28.085690, -61.241226 
1488856323.176675, 1488856323.176675, -1.005737, -0.861450, -0.020752, -3.579322, -28.085690, -61.241226 
1488856323.180420, 1488856323.180420, -1.005737, -0.861450, -0.020752, +37.588890, -20.364742, -26.817396 
1488856323.184390, 1488856323.184390, -1.005737, -0.861450, -0.020752, +37.588890, -20.364742, -26.817396 
1488856323.188345, 1488856323.188345, -1.005737, -0.861450, -0.020752, +37.588890, -20.364742, -26.817396 
1488856323.192294, 1488856323.192294, -1.005737, +0.210693, -0.340698, +54.373558, -14.856319, +2.250597 
1488856323.196081, 1488856323.196081, -0.393677, +0.210693, -0.340698, +54.373558, -14.856319, +2.250597 
1488856323.199826, 1488856323.199826, -0.393677, +0.210693, -0.340698, +54.373558, -14.856319, +2.250597 
1488856323.203614, 1488856323.203614, -0.393677, +0.210693, -0.340698, +48.285301, -10.202389, +19.126818 
1488856323.207559, 1488856323.207559, -0.393677, +0.210693, -0.340698, +48.285301, -10.202389, +19.126818 
1488856323.211510, 1488856323.211510, -0.393677, +0.210693, -0.153198, +48.285301, -10.202389, +30.845568 
1488856323.215502, 1488856323.215502, +0.025757, +0.594482, -0.145386, +34.903343, -7.074337, +29.991076 
1488856323.219445, 1488856323.219445, +0.025757, +0.594482, -0.145386, +34.903343, -7.074337, +29.991076 
1488856323.223396, 1488856323.223396, +0.025757, +0.594482, -0.145386, +15.356835, +4.156132, +42.777939 
1488856323.227337, 1488856323.227337, +0.025757, +0.594482, -0.145386, +15.356835, +4.156132, +42.777939 
1488856323.231294, 1488856323.231294, +0.025757, +0.594482, -0.020386, +15.356835, +4.156132, +42.777939 
1488856323.235282, 1488856323.235282, +0.059937, +0.453003, -0.002808, -12.505713, +22.558231, +58.692856 
1488856323.239513, 1488856323.239513, +0.059937, +0.453003, -0.002808, -12.505713, +22.558231, +58.692856 
1488856323.243867, 1488856323.243867, +0.059937, +0.453003, -0.002808, -12.505713, +22.558231, +58.692856 
1488856323.247612, 1488856323.247612, +0.059937, +0.453003, -0.002808, -43.709938, +42.928715, +73.158188 
1488856323.251368, 1488856323.251368, +0.059937, +0.453003, -0.066284, -43.709938, +42.928715, +73.158188 
1488856323.255235, 1488856323.255235, -0.228394, +0.155518, -0.066284, -43.709938, +42.928715, +88.340683 
1488856323.259191, 1488856323.259191, -0.228394, +0.155518, -0.066284, -66.933815, +64.367317, +88.340683 
1488856323.263137, 1488856323.263137, -0.228394, +0.155518, -0.066284, -66.933815, +64.367317, +88.340683 
1488856323.267096, 1488856323.267096, -0.228394, +0.155518, -0.066284, -79.201881, +80.099129, +103.584213 
1488856323.271052, 1488856323.271052, -0.228394, +0.155518, -0.128784, -79.201881, +80.099129, +103.584213 
1488856323.274915, 1488856323.274915, -0.316895, +0.103149, -0.147827, -79.201881, +80.099129, +103.584213 
1488856323.278677, 1488856323.278677, -0.316895, +0.103149, -0.147827, -82.406227, +91.436409, +118.431015 
1488856323.282431, 1488856323.282431, -0.316895, +0.103149, -0.147827, -82.406227, +91.436409, +118.431015 
1488856323.286206, 1488856323.286206, -0.316895, +0.103149, -0.147827, -82.406227, +91.436409, +118.431015 
1488856323.290462, 1488856323.290462, -0.316895, +0.103149, -0.147827, -80.376808, +100.576424, +133.445663 
1488856323.294298, 1488856323.294298, -0.328613, +0.054688, -0.223755, -80.376808, +100.576424, +133.445663 
1488856323.298042, 1488856323.298042, -0.328613, +0.054688, -0.223755, -80.376808, +100.576424, +133.445663 
1488856323.301782, 1488856323.301782, -0.328613, +0.054688, -0.223755, -76.714699, +109.731697, +148.887558 
1488856323.305591, 1488856323.305591, -0.328613, +0.054688, -0.223755, -76.714699, +109.731697, +148.887558 
1488856323.309333, 1488856323.309333, -0.328613, +0.054688, -0.223755, -76.714699, +109.731697, +148.887558 
1488856323.313254, 1488856323.313254, -0.443359, +0.150391, -0.272461, -74.319069, +120.306038, +162.971420 
1488856323.317000, 1488856323.317000, -0.443359, +0.150391, -0.272461, -74.319069, +120.306038, +162.971420 
1488856323.320747, 1488856323.320747, -0.443359, +0.150391, -0.272461, -74.319069, +120.306038, +175.804062 
1488856323.324502, 1488856323.324502, -0.443359, +0.150391, -0.272461, -77.141945, +131.658569, +175.804062 
1488856323.328253, 1488856323.328253, -0.443359, +0.150391, -0.272461, -77.141945, +131.658569, +175.804062 
1488856323.332012, 1488856323.332012, -0.665649, +0.340576, -0.321533, -84.954445, +139.684692, +189.308090 
1488856323.335907, 1488856323.335907, -0.665649, +0.340576, -0.321533, -85.549538, +139.684692, +189.308090 
1488856323.339664, 1488856323.339664, -0.665649, +0.340576, -0.321533, -85.549538, +139.684692, +189.308090 
1488856323.343571, 1488856323.343571, -0.665649, +0.340576, -0.321533, -87.609474, +146.978394, +201.759262 
1488856323.347329, 1488856323.347329, -0.665649, +0.340576, -0.321533, -87.609474, +146.978394, +201.759262 
1488856323.351085, 1488856323.351085, -0.665649, +0.417969, -0.385376, -87.609474, +146.978394, +201.759262 
1488856323.354955, 1488856323.354955, -0.807129, +0.417969, -0.385376, -89.181129, +154.653564, +213.935776 
1488856323.358906, 1488856323.358906, -0.807129, +0.417969, -0.385376, -89.181129, +154.653564, +213.935776 
1488856323.362849, 1488856323.362849, -0.807129, +0.417969, -0.385376, -89.181129, +154.653564, +213.935776 
1488856323.366812, 1488856323.366812, -0.807129, +0.417969, -0.385376, -94.765846, +163.198486, +226.264877 
1488856323.370763, 1488856323.370763, -0.807129, +0.324219, -0.287964, -94.765846, +163.198486, +226.264877 
1488856323.374724, 1488856323.374724, -1.098633, +0.324219, -0.287964, -94.765846, +163.198486, +226.264877 
1488856323.378665, 1488856323.378665, -1.098633, +0.324219, -0.287964, -104.943459, +171.270386, +235.465927 
1488856323.382620, 1488856323.382620, -1.098633, +0.324219, -0.287964, -104.943459, +171.270386, +235.465927 
1488856323.386585, 1488856323.386585, -1.098633, +0.324219, -0.287964, -112.755959, +174.322144, +243.720932 
1488856323.390617, 1488856323.390617, -1.098633, +0.105469, -0.410034, -110.589211, +174.322144, +243.720932 
1488856323.394592, 1488856323.394592, -1.495605, +0.102295, -0.410034, -110.589211, +174.322144, +243.720932 
1488856323.398355, 1488856323.398355, -1.495605, +0.102295, -0.410034, -105.187599, +170.644775, +254.981918 
1488856323.403100, 1488856323.403100, -1.495605, +0.102295, -0.410034, -105.187599, +170.644775, +254.981918 
1488856323.406859, 1488856323.406859, -1.495605, +0.102295, -0.410034, -105.187599, +170.644775, +254.981918 
1488856323.410600, 1488856323.410600, -1.495605, +0.144775, -0.471680, -92.293922, +164.098755, +271.614014 
1488856323.414356, 1488856323.414356, -1.855103, +0.144775, -0.471680, -92.293922, +164.098755, +271.614014 
1488856323.418094, 1488856323.418094, -1.855103, +0.144775, -0.471680, -92.293922, +164.098755, +271.614014 
1488856323.421840, 1488856323.421840, -1.855103, +0.144775, -0.471680, -86.770241, +160.360352, +287.986694 
1488856323.425642, 1488856323.425642, -1.855103, +0.144775, -0.471680, -86.770241, +160.360352, +287.986694 
1488856323.429388, 1488856323.429388, -1.855103, +0.144775, -0.471680, -86.770241, +160.360352, +295.799194 
1488856323.433134, 1488856323.433134, -2.254272, -0.064697, -0.589722, -97.008888, +163.671509, +297.080933 
1488856323.436878, 1488856323.436878, -2.254272, -0.064697, -0.589722, -97.008888, +163.671509, +297.080933 
1488856323.440629, 1488856323.440629, -2.254272, -0.064697, -0.589722, -97.008888, +163.671509, +300.010620 
1488856323.444441, 1488856323.444441, -2.254272, -0.064697, -0.589722, -101.296608, +166.128174, +300.010620 
1488856323.448202, 1488856323.448202, -2.254272, -0.064697, -0.589722, -101.296608, +166.128174, +300.010620 
1488856323.451954, 1488856323.451954, -2.664795, -0.471436, -0.481445, -92.217628, +163.137451, +293.647705 
1488856323.455878, 1488856323.455878, -2.664795, -0.471436, -0.481445, -92.217628, +163.137451, +293.647705 
1488856323.459748, 1488856323.459748, -2.664795, -0.471436, -0.481445, -92.217628, +163.137451, +293.647705 
1488856323.463616, 1488856323.463616, -2.664795, -0.471436, -0.481445, -83.855812, +157.445923, +278.587280 
1488856323.467561, 1488856323.467561, -2.664795, -0.471436, -0.481445, -83.855812, +157.445923, +278.587280 
1488856323.471499, 1488856323.471499, -2.843140, -0.670654, -0.326538, -83.855812, +157.445923, +278.587280 
1488856323.475372, 1488856323.475372, -2.843140, -0.670654, -0.326538, -76.882545, +142.171875, +253.303452 
1488856323.479119, 1488856323.479119, -2.843140, -0.670654, -0.326538, -76.882545, +142.171875, +253.303452 
1488856323.482867, 1488856323.482867, -2.843140, -0.670654, -0.326538, -76.882545, +142.171875, +253.303452 
1488856323.486817, 1488856323.486817, -2.843140, -0.670654, -0.326538, -73.968117, +125.814461, +218.635483 
1488856323.490769, 1488856323.490769, -2.405029, -1.568726, -0.256348, -73.968117, +125.814461, +218.635483 
1488856323.494728, 1488856323.494728, -2.405029, -1.568726, -0.256348, -73.968117, +125.814461, +179.572983 
1488856323.498669, 1488856323.498669, -2.405029, -1.568726, -0.256348, -68.047707, +115.743660, +178.123398 
1488856323.502617, 1488856323.502617, -2.405029, -1.568726, -0.256348, -68.047707, +115.743660, +178.123398 
1488856323.506402, 1488856323.506402, -2.405029, -1.568726, -0.256348, -68.047707, +90.826057, +113.609238 
1488856323.510151, 1488856323.510151, -2.155029, -2.622192, +0.813477, -70.565407, +90.826057, +113.609238 
1488856323.513900, 1488856323.513900, -2.133545, -2.622192, +0.813477, -70.565407, +90.826057, +113.609238 
1488856323.517649, 1488856323.517649, -2.133545, -2.622192, +0.813477, -36.614601, +54.113407, +45.677109 
1488856323.521526, 1488856323.521526, -2.133545, -2.622192, +0.813477, -36.614601, +54.113407, +45.677109 
1488856323.525460, 1488856323.525460, -2.133545, -2.622192, +0.813477, -36.614601, +54.113407, +45.677109 
1488856323.529226, 1488856323.529226, -2.133545, -2.622192, +0.776123, -13.482276, +6.002446, -27.259901 
1488856323.533044, 1488856323.533044, -2.078247, -1.906372, +0.776123, -13.482276, +6.002446, -27.259901 
1488856323.536785, 1488856323.536785, -2.078247, -1.906372, +0.776123, -13.482276, +6.002446, -27.259901 
1488856323.540517, 1488856323.540517, -2.078247, -1.906372, +0.776123, -27.306740, -38.553219, -95.665054 
1488856323.544271, 1488856323.544271, -2.078247, -1.906372, +0.776123, -27.306740, -38.553219, -95.665054 
1488856323.548015, 1488856323.548015, -2.078247, -1.906372, +0.776123, -27.306740, -38.553219, -95.665054 
1488856323.551758, 1488856323.551758, -1.984009, -1.440063, +0.227295, -37.759010, -66.339470, -153.724747 
1488856323.555552, 1488856323.555552, -1.984009, -1.440063, +0.227295, -37.759010, -66.339470, -153.724747 
1488856323.559289, 1488856323.559289, -1.984009, -1.440063, +0.227295, -37.759010, -66.339470, -153.724747 
1488856323.563026, 1488856323.563026, -1.984009, -1.440063, +0.227295, -42.809669, -82.101799, -198.616104 
1488856323.566770, 1488856323.566770, -1.984009, -1.440063, +0.227295, -42.809669, -82.101799, -198.616104 
1488856323.570511, 1488856323.570511, -1.407837, +0.824707, -1.051147, -42.809669, -82.101799, -198.616104 
1488856323.574396, 1488856323.574396, -1.407837, +0.824707, -1.051147, -41.939919, -78.744865, -207.206802 
1488856323.578146, 1488856323.578146, -1.407837, +0.824707, -1.051147, -41.939919, -78.744865, -207.206802 
1488856323.581896, 1488856323.581896, -1.407837, +0.824707, -1.051147, -41.939919, -78.744865, -177.330093 
1488856323.585932, 1488856323.585932, -1.407837, +0.824707, -1.051147, -108.239357, -79.553581, -177.330093 
1488856323.589883, 1488856323.589883, -0.041138, +3.640381, -1.347168, -108.239357, -79.553581, -177.330093 
1488856323.593871, 1488856323.593871, -0.041138, +3.640381, -1.347168, +10.092553, -53.720455, -68.840103 
1488856323.597825, 1488856323.597825, -0.041138, +3.640381, -1.347168, +10.092553, -53.720455, -68.840103 
1488856323.601762, 1488856323.601762, -0.041138, +3.640381, -1.347168, +10.092553, -53.720455, -68.840103 
1488856323.605832, 1488856323.605832, -0.041138, +3.640381, -1.347168, +177.054230, -1.581172, -17.372206 
1488856323.609781, 1488856323.609781, -3.125000, -1.419189, +1.796997, +177.054230, -1.581172, -17.372206 
1488856323.613707, 1488856323.613707, -3.125000, -1.419189, +1.796997, +177.054230, -1.581172, -17.372206 
1488856323.617459, 1488856323.617459, -3.125000, -1.419189, +1.796997, +7.666406, -22.882442, -107.414322 
1488856323.621206, 1488856323.621206, -3.125000, -1.419189, +1.796997, +7.666406, -22.882442, -107.414322 
1488856323.625100, 1488856323.625100, -3.125000, -1.419189, +1.796997, +7.666406, -22.882442, -107.414322 
1488856323.629040, 1488856323.629040, -3.125000, -0.353760, -1.229980, -128.289398, -29.581051, -186.622696 
1488856323.632998, 1488856323.632998, -1.782715, -0.353760, -1.229980, -128.289398, -29.581051, -186.622696 
1488856323.636942, 1488856323.636942, -1.782715, -0.353760, -1.229980, -128.289398, -18.991451, -184.486465 
1488856323.641110, 1488856323.641110, -1.782715, -0.353760, -1.229980, -102.624123, -18.991451, -184.486465 
1488856323.645500, 1488856323.645500, -1.782715, -0.353760, -1.229980, -102.624123, -18.991451, -184.486465 
1488856323.649444, 1488856323.649444, -1.918457, -1.338257, -0.181641, -38.232033, -10.583858, -168.479996 
1488856323.653398, 1488856323.653398, -1.918457, -1.338257, -0.181641, -38.232033, -10.583858, -168.479996 
1488856323.657347, 1488856323.657347, -1.918457, -1.338257, -0.181641, -38.232033, -10.583858, -168.479996 
1488856323.661293, 1488856323.661293, -1.918457, -1.338257, -0.181641, +25.625999, -23.492794, -157.112198 
1488856323.665177, 1488856323.665177, -1.918457, -1.338257, -0.181641, +25.625999, -23.492794, -157.112198 
1488856323.668923, 1488856323.668923, -1.012207, -0.044434, -0.636719, +25.625999, -23.492794, -133.674698 
1488856323.672682, 1488856323.672682, -1.008301, -0.044434, -0.636719, +57.852562, -46.503048, -132.972794 
1488856323.676443, 1488856323.676443, -1.008301, -0.044434, -0.636719, +57.852562, -46.503048, -132.972794 
1488856323.680195, 1488856323.680195, -1.008301, -0.044434, -0.636719, +57.852562, -46.503048, -104.377823 
1488856323.683951, 1488856323.683951, -1.008301, -0.044434, -0.636719, +92.795189, -49.142818, -104.377823 
1488856323.687707, 1488856323.687707, -1.008301, -0.044434, -0.386719, +92.795189, -49.142818, -104.377823 
1488856323.691459, 1488856323.691459, -0.644653, -0.435669, -0.403809, +92.795189, -47.281246, -84.449844 
1488856323.695337, 1488856323.695337, -0.644653, -0.435669, -0.403809, +101.218040, -47.281246, -84.449844 
1488856323.699086, 1488856323.699086, -0.644653, -0.435669, -0.403809, +101.218040, -47.281246, -84.449844 
1488856323.702922, 1488856323.702922, -0.644653, -0.435669, -0.403809, +93.634422, -39.636593, -72.990494 
1488856323.706858, 1488856323.706858, -0.644653, -0.435669, -0.403809, +93.634422, -39.636593, -72.990494 
1488856323.710610, 1488856323.710610, -1.042969, +0.166260, -0.284546, +93.634422, -39.636593, -72.990494 
1488856323.714555, 1488856323.714555, -1.042969, +0.166260, -0.284546, +78.879173, -33.548336, -67.726212 
1488856323.719118, 1488856323.719118, -1.042969, +0.166260, -0.284546, +78.879173, -33.548336, -67.726212 
1488856323.722866, 1488856323.722866, -1.042969, +0.166260, -0.284546, +78.879173, -33.548336, -67.726212 
1488856323.726696, 1488856323.726696, -1.042969, +0.166260, -0.284546, +53.625877, -30.969601, -62.446671 
1488856323.730438, 1488856323.730438, -1.450317, +0.166382, -0.313477, +53.625877, -30.969601, -62.446671 
1488856323.734238, 1488856323.734238, -1.450317, +0.166382, -0.313477, +53.625877, -30.969601, -62.446671 
1488856323.737979, 1488856323.737979, -1.450317, +0.166382, -0.313477, +25.183495, -29.336910, -64.888077 
1488856323.741725, 1488856323.741725, -1.450317, +0.166382, -0.313477, +25.183495, -29.336910, -64.888077 
1488856323.745469, 1488856323.745469, -1.450317, +0.166382, -0.313477, +25.183495, -29.336910, -68.061905 
1488856323.749215, 1488856323.749215, -1.205566, +0.051270, -0.351318, +9.222802, -26.269894, -68.061905 
1488856323.753131, 1488856323.753131, -1.205566, +0.051270, -0.351318, +9.222802, -26.269894, -68.061905 
1488856323.756891, 1488856323.756891, -1.205566, +0.051270, -0.351318, +5.316552, -26.620846, -62.080460 
1488856323.760633, 1488856323.760633, -1.205566, +0.051270, -0.351318, +6.689843, -26.620846, -62.080460 
1488856323.764547, 1488856323.764547, -1.205566, +0.051270, -0.351318, +6.689843, -26.620846, -62.080460 
1488856323.768297, 1488856323.768297, -1.067871, -0.313599, -0.434082, +18.729027, -26.559811, -51.078873 
1488856323.772046, 1488856323.772046, -1.067871, -0.313599, -0.434082, +18.729027, -26.559811, -51.078873 
1488856323.776043, 1488856323.776043, -1.067871, -0.313599, -0.434082, +18.729027, -26.559811, -51.078873 
1488856323.779992, 1488856323.779992, -1.067871, -0.313599, -0.434082, +36.490257, -25.781612, -37.880020 
1488856323.783947, 1488856323.783947, -1.067871, -0.313599, -0.434082, +36.490257, -25.781612, -37.880020 
1488856323.787897, 1488856323.787897, -1.036621, -0.203369, -0.336548, +36.490257, -25.781612, -37.880020 
1488856323.791839, 1488856323.791839, -1.059326, -0.203369, -0.336548, +41.647728, -25.796871, -28.373793 
1488856323.795801, 1488856323.795801, -1.059326, -0.203369, -0.336548, +41.647728, -25.796871, -28.373793 
1488856323.799745, 1488856323.799745, -1.059326, -0.203369, -0.336548, +41.647728, -25.796871, -23.750380 
1488856323.803708, 1488856323.803708, -1.059326, -0.203369, -0.336548, +40.427025, -24.805050, -23.750380 
1488856323.807653, 1488856323.807653, -1.059326, -0.005981, -0.355835, +40.427025, -24.805050, -23.750380 
1488856323.811597, 1488856323.811597, -0.967896, -0.005981, -0.355835, +37.283714, -21.539669, -21.217421 
1488856323.815440, 1488856323.815440, -0.967896, -0.005981, -0.355835, +37.283714, -21.539669, -21.217421 
1488856323.819198, 1488856323.819198, -0.967896, -0.005981, -0.355835, +37.283714, -21.539669, -21.217421 
1488856323.822952, 1488856323.822952, -0.967896, -0.005981, -0.355835, +31.866844, -18.533688, -18.577650 
1488856323.826736, 1488856323.826736, -0.967896, -0.005981, -0.230835, +31.866844, -18.533688, -18.577650 
1488856323.830679, 1488856323.830679, -1.156494, -0.088257, -0.232666, +31.866844, -18.533688, -18.577650 
1488856323.834759, 1488856323.834759, -1.156494, -0.088257, -0.232666, +28.616722, -17.587643, -17.631605 
1488856323.838709, 1488856323.838709, -1.156494, -0.088257, -0.232666, +28.616722, -17.587643, -17.631605 
1488856323.842649, 1488856323.842649, -1.156494, -0.088257, -0.232666, +28.616722, -17.587643, -17.631605 
1488856323.846613, 1488856323.846613, -1.156494, -0.088257, -0.326416, +29.394920, -19.174557, -16.410902 
1488856323.850556, 1488856323.850556, -1.069092, -0.006592, -0.334839, +29.394920, -19.174557, -16.410902 
1488856323.854507, 1488856323.854507, -1.069092, -0.006592, -0.334839, +29.394920, -19.174557, -14.625624 
1488856323.858450, 1488856323.858450, -1.069092, -0.006592, -0.334839, +32.126244, -18.991451, -14.625624 
1488856323.862400, 1488856323.862400, -1.069092, -0.006592, -0.334839, +32.126244, -18.991451, -14.625624 
1488856323.866197, 1488856323.866197, -1.069092, -0.006592, -0.334839, +31.576927, -18.716793, -13.938978 
1488856323.869942, 1488856323.869942, -1.027466, -0.014893, -0.308472, +31.576927, -18.716793, -13.938978 
1488856323.873699, 1488856323.873699, -1.027466, -0.014893, -0.308472, +31.576927, -18.716793, -13.938978 
1488856323.877451, 1488856323.877451, -1.027466, -0.014893, -0.308472, +30.356224, -19.174557, -14.854506 
1488856323.881199, 1488856323.881199, -1.027466, -0.014893, -0.308472, +30.356224, -19.174557, -14.854506 
1488856323.885125, 1488856323.885125, -1.027466, -0.014893, -0.308472, +30.356224, -19.174557, -14.854506 
1488856323.888876, 1488856323.888876, -1.071533, -0.071777, -0.270874, +26.266869, -19.830685, -16.548231 
1488856323.892621, 1488856323.892621, -1.071533, -0.071777, -0.270874, +26.266869, -19.830685, -16.548231 
1488856323.896667, 1488856323.896667, -1.071533, -0.071777, -0.270874, +26.266869, -19.830685, -16.548231 
1488856323.900730, 1488856323.900730, -1.071533, -0.071777, -0.270874, +27.975853, -20.975094, -17.814711 
1488856323.904688, 1488856323.904688, -1.071533, -0.071777, -0.270874, +27.975853, -20.975094, -17.814711 
1488856323.908628, 1488856323.908628, -1.043945, -0.126587, -0.281372, +27.975853, -20.975094, -18.653944 
1488856323.912568, 1488856323.912568, -1.043945, -0.126587, -0.281372, +29.990013, -22.394161, -18.653944 
1488856323.916523, 1488856323.916523, -1.043945, -0.126587, -0.281372, +29.990013, -22.394161, -18.653944 
1488856323.920468, 1488856323.920468, -1.043945, -0.126587, -0.281372, +32.690819, -23.920040, -20.118788 
1488856323.924354, 1488856323.924354, -1.043945, -0.126587, -0.281372, +32.690819, -23.920040, -20.118788 
1488856323.928097, 1488856323.928097, -1.043091, +0.024048, -0.301147, +32.690819, -23.920040, -20.118788 
1488856323.931845, 1488856323.931845, -1.043091, +0.024048, -0.301147, +31.714256, -25.629025, -22.972181 
1488856323.935745, 1488856323.935745, -1.043091, +0.024048, -0.301147, +31.714256, -25.629025, -22.972181 
1488856323.939693, 1488856323.939693, -1.043091, +0.024048, -0.301147, +31.714256, -25.629025, -22.972181 
