Calculating the offsets...
timestamp_before, timestamp_after, accel_x, accel_y, accel_z, gyro_x, gyro_y, gyro_z
1488856361.065945, 1488856361.065945, -1.198364, +1.001343, -1.491211, +53.186546, -114.081810, -108.121666 
1488856361.078484, 1488856361.078484, -1.198364, +1.001343, -1.491211, +11.118067, -105.689476, -98.188194 
1488856361.082419, 1488856361.082419, -1.198364, +1.001343, -1.491211, +11.118067, -105.689476, -98.188194 
1488856361.086405, 1488856361.086405, -0.592407, -0.468628, -0.432251, +11.118067, -97.876976, -99.683556 
1488856361.090354, 1488856361.090354, -0.592407, -0.468628, -0.432251, -28.127539, -96.488426, -99.683556 
1488856361.094314, 1488856361.094314, -0.592407, -0.468628, -0.432251, -28.127539, -96.488426, -99.683556 
1488856361.098471, 1488856361.098471, -0.592407, -0.468628, -0.432251, -62.337746, -24.115988, -87.903770 
1488856361.102222, 1488856361.102222, -0.592407, -0.468628, -0.432251, -62.337746, -24.115988, -87.903770 
1488856361.106022, 1488856361.106022, -1.389038, -0.422729, -0.354248, -62.337746, -24.115988, -87.903770 
1488856361.109773, 1488856361.109773, -1.389038, -0.422729, -0.354248, -33.239235, +28.206400, -28.074057 
1488856361.113531, 1488856361.113531, -1.389038, -0.422729, -0.354248, -33.239235, +28.206400, -28.074057 
1488856361.117275, 1488856361.117275, -1.389038, -0.422729, -0.354248, -33.239235, +28.206400, -28.074057 
1488856361.121016, 1488856361.121016, -1.389038, -0.422729, -0.354248, -0.326025, +6.157449, +16.771524 
1488856361.124819, 1488856361.124819, -1.389038, -0.422729, -1.116943, -0.326025, +6.157449, +16.771524 
1488856361.128556, 1488856361.128556, -0.221069, +0.552124, -1.116943, -0.326025, +6.157449, +16.771524 
1488856361.132295, 1488856361.132295, -0.221069, +0.552124, -1.116943, +7.974756, -7.377097, +39.720745 
1488856361.136043, 1488856361.136043, -0.221069, +0.552124, -1.116943, +7.974756, -7.377097, +39.720745 
1488856361.139781, 1488856361.139781, -0.221069, +0.552124, -1.116943, +7.974756, -7.377097, +39.720745 
1488856361.143604, 1488856361.143604, -0.221069, +0.552124, -1.116943, +40.567528, +5.989603, +82.231728 
1488856361.147351, 1488856361.147351, +0.225586, +0.933838, +0.061646, +40.567528, +5.989603, +82.231728 
1488856361.151105, 1488856361.151105, +0.225586, +0.933838, +0.061646, +40.567528, +5.989603, +82.231728 
1488856361.155057, 1488856361.155057, +0.225586, +0.933838, +0.061646, +43.680321, +41.298439, +118.654457 
1488856361.159011, 1488856361.159011, +0.225586, +0.933838, +0.061646, +43.680321, +41.298439, +118.654457 
1488856361.162951, 1488856361.162951, +0.225586, +0.933838, +0.061646, -7.100928, +72.212746, +143.068527 
1488856361.166743, 1488856361.166743, -0.114502, +0.427124, -0.242920, -3.332007, +72.212746, +143.068527 
1488856361.170497, 1488856361.170497, -0.114502, +0.427124, -0.242920, -3.332007, +72.212746, +143.068527 
1488856361.174323, 1488856361.174323, -0.114502, +0.427124, -0.242920, -32.186378, +96.581032, +161.394333 
1488856361.178280, 1488856361.178280, -0.114502, +0.427124, -0.242920, -32.186378, +96.581032, +161.394333 
1488856361.182221, 1488856361.182221, -0.114502, +0.427124, -0.242920, -32.186378, +96.581032, +161.394333 
1488856361.186029, 1488856361.186029, -0.508545, +0.142212, -0.351196, -31.011450, +115.822365, +178.346848 
1488856361.189785, 1488856361.189785, -0.508545, +0.142212, -0.351196, -31.011450, +115.822365, +178.346848 
1488856361.193624, 1488856361.193624, -0.508545, +0.142212, -0.351196, -31.011450, +115.822365, +178.346848 
1488856361.197383, 1488856361.197383, -0.508545, +0.142212, -0.351196, -18.026220, +127.876808, +193.514084 
1488856361.201131, 1488856361.201131, -0.508545, +0.142212, -0.351196, -18.026220, +127.876808, +193.514084 
1488856361.205162, 1488856361.205162, -0.552490, +0.416870, -0.268188, -18.026220, +127.876808, +193.514084 
1488856361.209197, 1488856361.209197, -0.552490, +0.416870, -0.268188, -11.541235, +136.299667, +208.070969 
1488856361.213222, 1488856361.213222, -0.552490, +0.416870, -0.268188, -11.541235, +136.299667, +208.070969 
1488856361.217357, 1488856361.217357, -0.552490, +0.416870, -0.268188, -15.447485, +147.240219, +223.070358 
1488856361.221271, 1488856361.221271, -0.552490, +0.416870, -0.268188, -18.560278, +147.240219, +223.070358 
1488856361.225142, 1488856361.225142, -0.683472, +0.545410, -0.201416, -18.560278, +147.240219, +223.070358 
1488856361.229091, 1488856361.229091, -0.683472, +0.545410, -0.201416, -24.022924, +161.202011, +233.217453 
1488856361.233055, 1488856361.233055, -0.683472, +0.545410, -0.201416, -24.022924, +161.202011, +233.217453 
1488856361.237007, 1488856361.237007, -0.683472, +0.545410, -0.201416, -24.022924, +161.202011, +233.217453 
1488856361.240963, 1488856361.240963, -0.683472, +0.545410, -0.201416, -40.670265, +172.356186, +238.268112 
1488856361.244833, 1488856361.244833, -0.941162, +0.694336, -0.179443, -40.670265, +172.356186, +238.268112 
1488856361.248587, 1488856361.248587, -0.941162, +0.694336, -0.179443, -40.670265, +172.356186, +238.268112 
1488856361.252334, 1488856361.252334, -0.941162, +0.694336, -0.179443, -68.868507, +181.099472, +242.082809 
1488856361.256133, 1488856361.256133, -0.941162, +0.694336, -0.179443, -68.868507, +181.099472, +242.082809 
1488856361.259894, 1488856361.259894, -0.941162, +0.694336, -0.179443, -68.868507, +181.099472, +242.082809 
1488856361.263810, 1488856361.263810, -0.941162, +0.694336, -0.250854, -95.891823, +190.620956, +245.653366 
1488856361.267561, 1488856361.267561, -1.201538, +0.499146, -0.250854, -95.891823, +190.620956, +245.653366 
1488856361.271317, 1488856361.271317, -1.201538, +0.499146, -0.250854, -95.891823, +190.620956, +250.765060 
1488856361.275292, 1488856361.275292, -1.201538, +0.499146, -0.250854, -113.759865, +199.028549, +250.765060 
1488856361.279242, 1488856361.279242, -1.201538, +0.499146, -0.250854, -113.759865, +199.028549, +250.765060 
1488856361.283232, 1488856361.283232, -1.201538, +0.499146, -0.344604, -123.220314, +202.583847, +258.302887 
1488856361.287186, 1488856361.287186, -1.578735, +0.426270, -0.356079, -123.220314, +202.583847, +258.302887 
1488856361.291136, 1488856361.291136, -1.578735, +0.426270, -0.356079, -123.220314, +202.583847, +258.302887 
1488856361.295094, 1488856361.295094, -1.578735, +0.426270, -0.356079, -132.100922, +201.561508, +268.266876 
1488856361.299039, 1488856361.299039, -1.578735, +0.426270, -0.356079, -132.100922, +201.561508, +268.266876 
1488856361.302999, 1488856361.302999, -1.578735, +0.426270, -0.356079, -132.100922, +201.561508, +268.266876 
1488856361.306944, 1488856361.306944, -2.035767, +0.471069, -0.348633, -143.712860, +196.754990, +279.863556 
1488856361.310888, 1488856361.310888, -2.035767, +0.471069, -0.348633, -143.712860, +196.754990, +279.863556 
1488856361.314793, 1488856361.314793, -2.035767, +0.471069, -0.348633, -143.712860, +196.754990, +291.582306 
1488856361.318543, 1488856361.318543, -2.035767, +0.471069, -0.348633, -163.015228, +191.826401, +288.850983 
1488856361.322296, 1488856361.322296, -2.035767, +0.471069, -0.348633, -163.015228, +191.826401, +288.850983 
1488856361.326206, 1488856361.326206, -2.409302, +0.010864, -0.431519, -163.015228, +183.388290, +296.678741 
1488856361.330169, 1488856361.330169, -2.409302, +0.010864, -0.431519, -170.431000, +183.388290, +296.678741 
1488856361.334128, 1488856361.334128, -2.409302, +0.010864, -0.431519, -170.431000, +183.388290, +296.678741 
1488856361.338068, 1488856361.338068, -2.409302, +0.010864, -0.431519, -165.761810, +171.379623, +301.515778 
1488856361.342017, 1488856361.342017, -2.409302, +0.010864, -0.431519, -165.761810, +171.379623, +301.515778 
1488856361.345970, 1488856361.345970, -2.807617, -0.526001, -0.478027, -165.761810, +171.379623, +301.515778 
1488856361.349919, 1488856361.349919, -2.807617, -0.526001, -0.478027, -153.402191, +154.335556, +299.806793 
1488856361.353869, 1488856361.353869, -2.807617, -0.526001, -0.478027, -153.402191, +154.335556, +299.806793 
1488856361.357813, 1488856361.357813, -2.807617, -0.526001, -0.478027, -153.402191, +154.335556, +299.806793 
1488856361.361756, 1488856361.361756, -2.807617, -0.526001, -0.478027, -140.218597, +140.251694, +285.066803 
1488856361.365689, 1488856361.365689, -2.692261, -0.910645, -0.842285, -140.218597, +140.251694, +285.066803 
1488856361.369440, 1488856361.369440, -2.692261, -0.910645, -0.842285, -140.218597, +140.251694, +257.585724 
1488856361.373355, 1488856361.373355, -2.692261, -0.910645, -0.842285, -136.464935, +134.514389, +257.585724 
1488856361.377099, 1488856361.377099, -2.692261, -0.910645, -0.842285, -136.464935, +134.514389, +257.585724 
1488856361.380845, 1488856361.380845, -2.692261, -0.910645, -0.842285, -128.652435, +145.897446, +222.521042 
1488856361.384814, 1488856361.384814, -2.802734, -2.494019, -0.209473, -131.444794, +145.897446, +222.521042 
1488856361.388757, 1488856361.388757, -2.802734, -2.494019, -0.209473, -131.444794, +145.897446, +222.521042 
1488856361.392696, 1488856361.392696, -2.802734, -2.494019, -0.209473, -103.185524, +133.522568, +171.129440 
1488856361.396649, 1488856361.396649, -2.802734, -2.494019, -0.209473, -103.185524, +133.522568, +171.129440 
1488856361.400595, 1488856361.400595, -2.802734, -2.494019, -0.209473, -103.185524, +133.522568, +171.129440 
1488856361.404486, 1488856361.404486, -2.361572, -2.916626, +0.644287, -48.879494, +89.027931, +111.131874 
1488856361.408384, 1488856361.408384, -2.361572, -2.916626, +0.644287, -48.879494, +89.027931, +111.131874 
1488856361.412133, 1488856361.412133, -2.361572, -2.916626, +0.644287, -48.879494, +89.027931, +111.131874 
1488856361.416050, 1488856361.416050, -2.361572, -2.916626, +0.644287, -14.867651, +39.604713, +47.121258 
1488856361.420059, 1488856361.420059, -2.361572, -2.916626, +0.644287, -14.867651, +39.604713, +47.121258 
1488856361.424991, 1488856361.424991, -2.222534, -2.327515, +0.980225, -28.676855, -5.851218, -28.669149 
1488856361.428730, 1488856361.428730, -2.222534, -2.327515, +0.980225, -28.676855, -5.851218, -28.669149 
1488856361.432471, 1488856361.432471, -2.222534, -2.327515, +0.980225, -28.676855, -5.851218, -28.669149 
1488856361.436305, 1488856361.436305, -2.222534, -2.327515, +0.980225, -39.174904, -47.477196, -105.085167 
1488856361.440048, 1488856361.440048, -2.222534, -2.327515, +0.980225, -39.174904, -47.477196, -105.085167 
1488856361.443836, 1488856361.443836, -1.929810, -2.122314, +0.046875, -39.174904, -47.477196, -105.085167 
1488856361.447574, 1488856361.447574, -1.929810, -2.122314, +0.046875, -52.556862, -73.981712, -169.019485 
1488856361.451321, 1488856361.451321, -1.929810, -2.122314, +0.046875, -52.556862, -73.981712, -169.019485 
1488856361.455071, 1488856361.455071, -1.929810, -2.122314, +0.046875, -52.556862, -73.981712, -169.019485 
1488856361.458813, 1488856361.458813, -1.929810, -2.122314, +0.046875, -45.232643, -84.861229, -207.486893 
1488856361.462548, 1488856361.462548, -1.929810, +0.006348, -1.277466, -45.232643, -84.861229, -207.486893 
1488856361.466383, 1488856361.466383, -2.127319, +0.006348, -1.277466, -45.232643, -84.861229, -207.486893 
1488856361.470121, 1488856361.470121, -2.127319, +0.006348, -1.277466, -39.892067, -84.693382, -201.703812 
1488856361.473992, 1488856361.473992, -2.127319, +0.006348, -1.277466, -39.892067, -84.693382, -201.703812 
1488856361.477732, 1488856361.477732, -2.127319, +0.006348, -1.277466, -39.892067, -84.693382, -201.703812 
1488856361.481483, 1488856361.481483, -2.127319, +0.006348, -1.277466, -35.955299, -74.454735, -163.877274 
1488856361.485330, 1488856361.485330, -2.058350, +3.064209, -1.058105, -35.955299, -74.454735, -163.877274 
1488856361.489063, 1488856361.489063, -2.058350, +3.064209, -1.058105, -35.955299, -74.454735, -97.318443 
1488856361.492803, 1488856361.492803, -2.058350, +3.064209, -1.058105, +146.310944, -59.256981, -97.318443 
1488856361.496560, 1488856361.496560, -2.058350, +3.064209, -1.058105, +146.310944, -59.256981, -97.318443 
1488856361.500300, 1488856361.500300, -2.058350, +3.064209, -1.058105, +146.310944, -59.256981, -135.617996 
1488856361.504085, 1488856361.504085, -3.332520, -1.397339, +1.846924, +153.268951, -59.867332, -135.617996 
1488856361.507836, 1488856361.507836, -3.332520, -1.397339, +1.846924, +153.268951, -59.867332, -135.617996 
1488856361.511692, 1488856361.511692, -3.332520, -1.397339, +1.846924, -23.183691, -85.669945, -226.575638 
1488856361.515839, 1488856361.515839, -3.332520, -1.397339, +1.846924, -23.183691, -85.669945, -226.575638 
1488856361.520298, 1488856361.520298, -3.332520, -1.397339, +1.846924, -23.183691, -85.669945, -226.575638 
1488856361.524096, 1488856361.524096, -1.068970, -0.366333, -0.853027, -26.388037, -55.365990, -218.335892 
1488856361.527839, 1488856361.527839, -1.068970, -0.366333, -0.853027, -26.388037, -55.365990, -218.335892 
1488856361.531582, 1488856361.531582, -1.068970, -0.366333, -0.853027, -26.388037, -55.365990, -218.335892 
1488856361.535422, 1488856361.535422, -1.068970, -0.366333, -0.853027, +16.870630, -42.502831, -187.497879 
1488856361.539159, 1488856361.539159, -1.068970, -0.366333, -0.853027, +16.870630, -42.502831, -187.497879 
1488856361.542898, 1488856361.542898, -0.413574, -1.052734, -0.486450, +16.870630, -42.502831, -187.497879 
1488856361.546649, 1488856361.546649, -0.413574, -1.052734, -0.486450, +28.864038, -17.707296, -167.157913 
1488856361.550385, 1488856361.550385, -0.413574, -1.052734, -0.486450, +28.864038, -17.707296, -167.157913 
1488856361.554133, 1488856361.554133, -0.413574, -1.052734, -0.486450, +28.864038, -17.707296, -167.157913 
1488856361.557876, 1488856361.557876, -0.413574, -1.052734, -0.486450, +33.533226, -8.216330, -151.883865 
1488856361.561625, 1488856361.561625, -0.413574, -0.865234, -0.186890, +33.533226, -8.216330, -151.883865 
1488856361.565526, 1488856361.565526, -1.030518, -0.848145, -0.186890, +33.533226, -8.216330, -136.319901 
1488856361.569277, 1488856361.569277, -1.030518, -0.848145, -0.186890, +59.763084, -18.439718, -136.319901 
1488856361.573117, 1488856361.573117, -1.030518, -0.848145, -0.186890, +59.763084, -18.439718, -136.319901 
1488856361.577057, 1488856361.577057, -1.030518, -0.848145, -0.186890, +86.298119, -36.841820, -113.874229 
1488856361.581001, 1488856361.581001, -1.030518, -0.848145, -0.718140, +86.298119, -36.841820, -113.874229 
1488856361.584963, 1488856361.584963, -1.803345, -0.276123, -0.712891, +86.298119, -36.841820, -113.874229 
1488856361.588907, 1488856361.588907, -1.803345, -0.276123, -0.712891, +101.343285, -46.714256, -81.434044 
1488856361.592851, 1488856361.592851, -1.803345, -0.276123, -0.712891, +101.343285, -46.714256, -81.434044 
1488856361.596813, 1488856361.596813, -1.803345, -0.276123, -0.712891, +101.343285, -46.714256, -81.434044 
1488856361.600757, 1488856361.600757, -1.803345, -0.276123, -0.306641, +96.857201, -47.660301, -60.743122 
1488856361.604635, 1488856361.604635, -1.442261, -0.025391, -0.292358, +96.857201, -47.660301, -60.743122 
1488856361.608381, 1488856361.608381, -1.442261, -0.025391, -0.292358, +96.857201, -47.660301, -60.743122 
1488856361.612129, 1488856361.612129, -1.442261, -0.025391, -0.292358, +84.619652, -47.187279, -54.746418 
1488856361.616097, 1488856361.616097, -1.442261, -0.025391, -0.292358, +84.619652, -47.187279, -54.746418 
1488856361.620042, 1488856361.620042, -1.442261, -0.025391, -0.292358, +84.619652, -47.187279, -54.044514 
1488856361.623999, 1488856361.623999, -1.061279, +0.241089, -0.135864, +58.801781, -44.364403, -54.044514 
1488856361.627944, 1488856361.627944, -1.061279, +0.241089, -0.135864, +58.801781, -44.364403, -54.044514 
1488856361.632174, 1488856361.632174, -1.061279, +0.241089, -0.135864, +20.013941, -35.865257, -50.397663 
1488856361.636690, 1488856361.636690, -1.061279, +0.241089, -0.135864, +20.013941, -35.865257, -50.397663 
1488856361.640588, 1488856361.640588, -1.061279, +0.241089, -0.135864, +20.013941, -35.865257, -50.397663 
1488856361.644351, 1488856361.644351, -0.986328, -0.167603, -0.138184, +6.662500, -29.899069, -44.645100 
1488856361.648101, 1488856361.648101, -0.986328, -0.167603, -0.138184, +6.662500, -29.899069, -44.645100 
1488856361.652069, 1488856361.652069, -0.986328, -0.167603, -0.138184, +6.662500, -29.899069, -44.645100 
1488856361.655817, 1488856361.655817, -0.986328, -0.167603, -0.138184, +4.465234, -23.398825, -33.918171 
1488856361.659783, 1488856361.659783, -0.986328, -0.167603, -0.138184, +4.465234, -23.398825, -33.918171 
1488856361.663548, 1488856361.663548, -1.175293, -0.188354, -0.289795, +4.465234, -23.398825, -23.450644 
1488856361.667285, 1488856361.667285, -1.175293, -0.188354, -0.289795, +6.372583, -18.439718, -23.450644 
1488856361.671365, 1488856361.671365, -1.175293, -0.188354, -0.289795, +6.372583, -18.439718, -23.450644 
1488856361.675113, 1488856361.675113, -1.175293, -0.188354, -0.289795, +14.688623, -17.020651, -13.349325 
1488856361.678847, 1488856361.678847, -1.175293, -0.188354, -0.289795, +14.688623, -17.020651, -13.349325 
1488856361.682710, 1488856361.682710, -1.189087, -0.317871, -0.473389, +14.688623, -17.020651, -13.349325 
1488856361.686495, 1488856361.686495, -1.189087, -0.317871, -0.473389, +30.191553, -17.676779, -2.866537 
1488856361.690301, 1488856361.690301, -1.189087, -0.317871, -0.473389, +30.191553, -17.676779, -2.866537 
1488856361.694172, 1488856361.694172, -1.189087, -0.317871, -0.473389, +30.191553, -17.676779, -2.866537 
1488856361.697908, 1488856361.697908, -1.189087, -0.317871, -0.473389, +48.441063, -15.967794, +5.144328 
1488856361.701775, 1488856361.701775, -1.025879, -0.038818, -0.443237, +48.441063, -15.967794, +5.144328 
1488856361.705566, 1488856361.705566, -1.025879, -0.038818, -0.443237, +48.441063, -15.967794, +5.144328 
1488856361.709312, 1488856361.709312, -1.025879, -0.038818, -0.443237, +57.779442, -12.381979, +9.599894 
1488856361.713088, 1488856361.713088, -1.025879, -0.038818, -0.443237, +57.779442, -12.381979, +9.599894 
1488856361.717032, 1488856361.717032, -1.025879, -0.038818, -0.443237, +57.779442, -12.381979, +9.599894 
1488856361.720967, 1488856361.720967, -1.119629, +0.138916, -0.268188, +57.092796, -10.474630, +9.142130 
1488856361.725041, 1488856361.725041, -1.119385, +0.138916, -0.268188, +57.092796, -10.474630, +9.142130 
1488856361.729517, 1488856361.729517, -1.119385, +0.138916, -0.268188, +52.194725, -11.939474, +6.273478 
1488856361.733319, 1488856361.733319, -1.119385, +0.138916, -0.268188, +52.194725, -11.939474, +6.273478 
1488856361.737061, 1488856361.737061, -1.119385, +0.138916, -0.268188, +52.194725, -11.939474, +6.273478 
1488856361.740791, 1488856361.740791, -1.181885, +0.191284, -0.322632, +41.864525, -16.547628, -2.271444 
1488856361.744541, 1488856361.744541, -1.156738, +0.191284, -0.322632, +41.864525, -16.547628, -2.271444 
1488856361.748277, 1488856361.748277, -1.156738, +0.191284, -0.322632, +41.864525, -16.547628, -2.271444 
1488856361.752015, 1488856361.752015, -1.156738, +0.191284, -0.322632, +36.508690, -21.949240, -9.580404 
1488856361.755806, 1488856361.755806, -1.156738, +0.191284, -0.322632, +36.508690, -21.949240, -9.580404 
1488856361.759545, 1488856361.759545, -1.156738, +0.191284, -0.322632, +36.508690, -21.949240, -9.580404 
1488856361.763306, 1488856361.763306, -1.016968, +0.133057, -0.367432, +37.256371, -25.229879, -15.424520 
1488856361.767047, 1488856361.767047, -1.016968, +0.133057, -0.367432, +37.256371, -25.229879, -15.424520 
1488856361.770791, 1488856361.770791, -1.016968, +0.133057, -0.367432, +37.256371, -25.229879, -15.424520 
1488856361.774583, 1488856361.774583, -1.016968, +0.133057, -0.367432, +38.766991, -29.227682, -22.367270 
1488856361.778339, 1488856361.778339, -1.016968, +0.133057, -0.367432, +38.766991, -29.227682, -22.367270 
1488856361.782087, 1488856361.782087, -1.010620, +0.021606, -0.349976, +38.766991, -29.227682, -22.367270 
1488856361.786097, 1488856361.786097, -1.010620, +0.021606, -0.349976, +40.491234, -30.326315, -30.530722 
1488856361.790048, 1488856361.790048, -1.010620, +0.021606, -0.349976, +40.491234, -30.326315, -30.530722 
1488856361.793949, 1488856361.793949, -1.010620, +0.021606, -0.349976, +40.491234, -30.326315, -38.343220 
1488856361.797701, 1488856361.797701, -1.010620, +0.021606, -0.349976, +41.345726, -35.071800, -38.495808 
1488856361.801452, 1488856361.801452, -0.973877, +0.041748, -0.373169, +41.345726, -35.071800, -38.495808 
1488856361.805449, 1488856361.805449, -0.973877, +0.041748, -0.373169, +45.251976, -38.642357, -44.660358 
1488856361.809388, 1488856361.809388, -0.973877, +0.041748, -0.373169, +43.848167, -38.642357, -44.660358 
1488856361.813349, 1488856361.813349, -0.973877, +0.041748, -0.373169, +43.848167, -38.642357, -44.660358 
1488856361.817294, 1488856361.817294, -0.973877, +0.041748, -0.373169, +45.419823, -42.869041, -50.031452 
1488856361.821241, 1488856361.821241, -1.096313, -0.031250, -0.282104, +45.419823, -42.869041, -50.031452 
1488856361.825134, 1488856361.825134, -1.096313, -0.031250, -0.282104, +45.419823, -42.869041, -50.031452 
1488856361.828888, 1488856361.828888, -1.096313, -0.031250, -0.282104, +44.351707, -45.264671, -55.600910 
1488856361.832634, 1488856361.832634, -1.096313, -0.031250, -0.282104, +44.351707, -45.264671, -55.600910 
1488856361.836591, 1488856361.836591, -1.096313, -0.031250, -0.282104, +44.351707, -45.264671, -55.600910 
1488856361.840654, 1488856361.840654, -1.236572, +0.052856, -0.170410, +43.207298, -49.079369, -61.002522 
1488856361.845241, 1488856361.845241, -1.236572, +0.052856, -0.170410, +43.207298, -49.079369, -61.002522 
1488856361.848986, 1488856361.848986, -1.236572, +0.052856, -0.170410, +43.207298, -53.397606, -65.107140 
1488856361.852734, 1488856361.852734, -1.236572, +0.052856, -0.170410, +40.247093, -53.397606, -65.107140 
1488856361.856555, 1488856361.856555, -1.236572, +0.052856, -0.170410, +40.247093, -53.397606, -65.107140 
1488856361.860305, 1488856361.860305, -1.264404, +0.141113, -0.200439, +39.514671, -57.898949, -71.332726 
1488856361.864095, 1488856361.864095, -1.264404, +0.141113, -0.200439, +39.514671, -57.898949, -71.332726 
1488856361.867845, 1488856361.867845, -1.264404, +0.141113, -0.200439, +39.514671, -57.898949, -71.332726 
1488856361.871597, 1488856361.871597, -1.264404, +0.141113, -0.200439, +37.988792, -61.973045, -77.832970 
1488856361.875398, 1488856361.875398, -1.264404, +0.141113, -0.200439, +37.988792, -61.973045, -77.832970 
1488856361.879141, 1488856361.879141, -1.264404, +0.141113, -0.195801, +37.988792, -61.973045, -77.832970 
1488856361.882882, 1488856361.882882, -1.433594, +0.136963, -0.195801, +35.135399, -67.634056, -85.325035 
1488856361.886631, 1488856361.886631, -1.433594, +0.136963, -0.195801, +35.135399, -67.634056, -85.325035 
1488856361.890369, 1488856361.890369, -1.433594, +0.136963, -0.195801, +35.135399, -67.634056, -85.325035 
1488856361.894221, 1488856361.894221, -1.433594, +0.136963, -0.195801, +30.496729, -74.714134, -93.961510 
1488856361.897970, 1488856361.897970, -1.433594, +0.136963, -0.195801, +30.496729, -74.714134, -93.961510 
1488856361.901720, 1488856361.901720, -1.554443, +0.201782, -0.387817, +30.496729, -74.714134, -93.961510 
1488856361.905728, 1488856361.905728, -1.554443, +0.201782, -0.387817, +26.270044, -80.741356, -102.445396 
1488856361.909672, 1488856361.909672, -1.554443, +0.201782, -0.387817, +26.270044, -80.741356, -102.445396 
1488856361.913664, 1488856361.913664, -1.554443, +0.201782, -0.387817, +26.270044, -80.741356, -111.203941 
1488856361.917610, 1488856361.917610, -1.554443, +0.201782, -0.387817, +24.835718, -87.424706, -111.203941 
1488856361.921557, 1488856361.921557, -1.758667, +0.236206, -0.513062, +24.835718, -87.424706, -111.203941 
1488856361.925511, 1488856361.925511, -1.758667, +0.236206, -0.513062, +27.368677, -95.206688, -118.665489 
1488856361.929459, 1488856361.929459, -1.758667, +0.236206, -0.513062, +27.368677, -95.206688, -118.665489 
1488856361.933384, 1488856361.933384, -1.758667, +0.236206, -0.513062, +27.368677, -95.206688, -118.665489 
1488856361.937132, 1488856361.937132, -1.758667, +0.236206, -0.513062, +32.083641, -101.462791, -124.952110 
1488856361.940882, 1488856361.940882, -1.966064, +0.371704, -1.014038, +32.083641, -101.462791, -124.952110 
1488856361.944740, 1488856361.944740, -1.966064, +0.371704, -1.014038, +32.083641, -101.462791, -124.952110 
1488856361.948676, 1488856361.948676, -1.966064, +0.371704, -1.014038, +43.665062, -106.437157, -131.452347 
1488856361.952601, 1488856361.952601, -1.966064, +0.371704, -1.014038, +43.665062, -106.437157, -131.452347 
1488856361.956701, 1488856361.956701, -1.966064, +0.371704, -1.014038, +43.665062, -106.437157, -131.452347 
1488856361.960767, 1488856361.960767, -2.162354, +0.485840, -1.295776, +59.549461, -108.527611, -139.615799 
1488856361.964724, 1488856361.964724, -2.162354, +0.485840, -1.295776, +59.549461, -108.527611, -139.615799 
1488856361.968673, 1488856361.968673, -2.162354, +0.485840, -1.295776, +59.549461, -111.854027, -144.315506 
1488856361.972612, 1488856361.972612, -2.162354, +0.485840, -1.295776, +77.921043, -111.854027, -144.315506 
1488856361.976564, 1488856361.976564, -2.162354, +0.485840, -1.295776, +77.921043, -111.854027, -144.315506 
1488856361.980506, 1488856361.980506, -2.226196, +1.047729, -1.754395, +98.474632, -119.285057, -145.200516 
1488856361.984492, 1488856361.984492, -2.226196, +1.047729, -1.754395, +98.474632, -119.285057, -145.200516 
1488856361.988434, 1488856361.988434, -2.226196, +1.047729, -1.754395, +98.474632, -119.285057, -145.200516 
1488856361.992374, 1488856361.992374, -2.226196, +1.047729, -1.754395, +116.800438, -118.873070, -149.259354 
1488856361.996164, 1488856361.996164, -2.226196, +1.047729, -1.754395, +116.800438, -118.873070, -149.259354 
1488856361.999912, 1488856361.999912, -2.501465, +1.239380, -1.792725, +116.800438, -118.873070, -149.259354 
1488856362.003789, 1488856362.003789, -2.501465, +1.239380, -1.792725, +117.197166, -114.020775, -150.464798 
1488856362.007533, 1488856362.007533, -2.501465, +1.239380, -1.792725, +117.197166, -114.020775, -150.464798 
1488856362.011274, 1488856362.011274, -2.501465, +1.239380, -1.792725, +117.197166, -114.020775, -150.464798 
1488856362.015231, 1488856362.015231, -2.501465, +1.239380, -1.792725, +124.414574, -111.518333, -140.348221 
1488856362.019174, 1488856362.019174, -2.365479, +0.357056, -1.251831, +124.414574, -111.518333, -140.348221 
1488856362.023131, 1488856362.023131, -2.365479, +0.357056, -1.251831, +124.414574, -113.959740, -125.623497 
1488856362.027076, 1488856362.027076, -2.365479, +0.357056, -1.251831, +141.275543, -113.959740, -125.623497 
1488856362.031025, 1488856362.031025, -2.365479, +0.357056, -1.251831, +141.275543, -113.959740, -125.623497 
1488856362.035038, 1488856362.035038, -2.365479, +0.357056, -1.251831, +126.993309, -122.428368, -111.631187 
1488856362.038795, 1488856362.038795, -1.563477, +0.422119, -1.058472, +126.993309, -122.428368, -111.631187 
1488856362.042541, 1488856362.042541, -1.563477, +0.422119, -1.058472, +126.993309, -122.428368, -111.631187 
1488856362.046485, 1488856362.046485, -1.563477, +0.422119, -1.058472, +85.321556, -121.589134, -104.963097 
1488856362.050353, 1488856362.050353, -1.563477, +0.422119, -1.058472, +85.321556, -121.589134, -104.963097 
1488856362.054737, 1488856362.054737, -1.563477, +0.422119, -1.058472, +85.321556, -121.589134, -104.963097 
1488856362.058481, 1488856362.058481, -0.732056, -0.626709, -0.470825, +31.824244, -110.343407, -113.034996 
1488856362.062221, 1488856362.062221, -0.732056, -0.626709, -0.470825, +31.824244, -110.343407, -113.034996 
1488856362.066030, 1488856362.066030, -0.732056, -0.626709, -0.470825, +31.824244, -110.343407, -109.128746 
1488856362.069767, 1488856362.069767, -0.732056, -0.626709, -0.470825, -5.926001, -59.348534, -109.632286 
1488856362.073518, 1488856362.073518, -0.732056, -0.626709, -0.470825, -5.926001, -59.348534, -109.632286 
1488856362.077256, 1488856362.077256, -0.732056, -0.626709, -0.470825, -5.926001, -59.348534, -69.379601 
1488856362.080995, 1488856362.080995, -1.180786, +0.051270, -0.478516, -14.654028, -1.822897, -69.379601 
1488856362.084749, 1488856362.084749, -1.180786, +0.051270, -0.478516, -14.654028, -1.822897, -69.379601 
1488856362.088484, 1488856362.088484, -1.180786, +0.051270, -0.478516, -14.654028, -13.602682, -24.778158 
1488856362.092227, 1488856362.092227, -1.180786, +0.051270, -0.478516, -2.508032, -13.602682, -24.778158 
1488856362.095991, 1488856362.095991, -1.180786, +0.051270, -0.478516, -2.508032, -13.602682, -24.778158 
1488856362.099846, 1488856362.099846, -0.021240, +0.945557, -0.842285, -16.912329, -7.941672, +4.503458 
1488856362.103779, 1488856362.103779, -0.021240, +0.945557, -0.842285, -16.912329, -7.941672, +4.503458 
1488856362.107518, 1488856362.107518, -0.021240, +0.945557, -0.842285, -16.912329, -7.941672, +4.503458 
1488856362.111266, 1488856362.111266, -0.021240, +0.945557, -0.842285, -20.559179, +19.920877, +35.860271 
1488856362.115228, 1488856362.115228, -0.021240, +0.945557, -0.842285, -20.559179, +19.920877, +35.860271 
1488856362.119177, 1488856362.119177, +0.137207, +0.573975, +0.015503, -20.559179, +19.920877, +35.860271 
1488856362.123136, 1488856362.123136, +0.137207, +0.573975, +0.015503, -44.042458, +57.304909, +60.335369 
1488856362.127095, 1488856362.127095, +0.137207, +0.573975, +0.015503, -44.042458, +57.304909, +60.335369 
1488856362.131042, 1488856362.131042, +0.137207, +0.573975, +0.015503, -44.042458, +57.304909, +60.335369 
1488856362.134998, 1488856362.134998, +0.137207, +0.573975, +0.015503, -64.779152, +85.701515, +81.224648 
1488856362.139173, 1488856362.139173, -0.077881, +0.144043, -0.397705, -64.779152, +85.701515, +81.224648 
1488856362.142935, 1488856362.142935, -0.077881, +0.144043, -0.397705, -64.779152, +110.909035, +105.425087 
1488856362.146913, 1488856362.146913, -0.077881, +0.144043, -0.397705, -64.962257, +110.909035, +105.425087 
1488856362.151623, 1488856362.151623, -0.077881, +0.144043, -0.397705, -64.962257, +110.909035, +105.425087 
1488856362.155505, 1488856362.155505, -0.077881, +0.144043, -0.397705, -56.173195, +126.808693, +132.707809 
1488856362.159252, 1488856362.159252, -0.455811, +0.215576, -0.192505, -56.173195, +126.808693, +132.707809 
1488856362.163022, 1488856362.163022, -0.455811, +0.215576, -0.192505, -56.173195, +126.808693, +132.707809 
1488856362.166898, 1488856362.166898, -0.455811, +0.215576, -0.192505, -42.043556, +134.438095, +156.572556 
1488856362.170637, 1488856362.170637, -0.455811, +0.215576, -0.192505, -42.043556, +134.438095, +156.572556 
1488856362.174529, 1488856362.174529, -0.455811, +0.215576, -0.192505, -42.043556, +134.438095, +156.572556 
1488856362.178273, 1488856362.178273, -0.533325, +0.438110, +0.004395, -34.154762, +137.932358, +176.332687 
1488856362.182024, 1488856362.182024, -0.533325, +0.438110, +0.004395, -34.154762, +137.932358, +176.332687 
1488856362.185914, 1488856362.185914, -0.533325, +0.438110, +0.004395, -34.154762, +137.932358, +191.957687 
1488856362.189647, 1488856362.189647, -0.533325, +0.438110, +0.004395, -35.314430, +143.761215, +193.636154 
1488856362.193438, 1488856362.193438, -0.533325, +0.438110, +0.004395, -35.314430, +143.761215, +193.636154 
1488856362.197194, 1488856362.197194, -0.533325, +0.495605, +0.002075, -35.314430, +147.667465, +208.223557 
1488856362.200948, 1488856362.200948, -0.672607, +0.495605, +0.002075, -41.753639, +149.498520, +208.223557 
1488856362.204887, 1488856362.204887, -0.672607, +0.495605, +0.002075, -41.753639, +149.498520, +208.223557 
1488856362.208819, 1488856362.208819, -0.672607, +0.495605, +0.002075, -49.749245, +156.136093, +218.889450 
1488856362.212740, 1488856362.212740, -0.672607, +0.495605, +0.002075, -49.749245, +156.136093, +218.889450 
1488856362.216715, 1488856362.216715, -0.672607, +0.589355, -0.095337, -49.749245, +156.136093, +218.889450 
1488856362.220643, 1488856362.220643, -0.822388, +0.580322, -0.095337, -63.329567, +163.460312, +227.983688 
1488856362.224576, 1488856362.224576, -0.822388, +0.580322, -0.095337, -63.329567, +163.460312, +227.983688 
1488856362.228505, 1488856362.228505, -0.822388, +0.580322, -0.095337, -63.329567, +163.460312, +227.983688 
1488856362.232429, 1488856362.232429, -0.822388, +0.580322, -0.095337, -80.510963, +169.792709, +236.864304 
1488856362.236378, 1488856362.236378, -0.822388, +0.580322, -0.128052, -80.510963, +169.792709, +236.864304 
1488856362.240304, 1488856362.240304, -1.042358, +0.486816, -0.128052, -80.510963, +169.792709, +244.676804 
1488856362.244278, 1488856362.244278, -1.042358, +0.486816, -0.128052, -98.195900, +175.163803, +245.409225 
1488856362.248319, 1488856362.248319, -1.042358, +0.486816, -0.128052, -98.195900, +175.163803, +245.409225 
1488856362.252249, 1488856362.252249, -1.042358, +0.486816, -0.128052, -111.821999, +179.756699, +252.718185 
1488856362.256211, 1488856362.256211, -1.042358, +0.486816, -0.180908, -111.821999, +179.756699, +252.718185 
1488856362.260259, 1488856362.260259, -1.275879, +0.409790, -0.180908, -111.821999, +179.756699, +252.718185 
1488856362.264452, 1488856362.264452, -1.275879, +0.409790, -0.180908, -122.091164, +181.557236, +260.179718 
1488856362.268400, 1488856362.268400, -1.275879, +0.409790, -0.180908, -122.091164, +181.557236, +260.179718 
1488856362.272345, 1488856362.272345, -1.275879, +0.409790, -0.180908, -122.091164, +181.557236, +260.179718 
1488856362.276307, 1488856362.276307, -1.275879, +0.513550, -0.247437, -129.506927, +179.024277, +270.204742 
1488856362.280256, 1488856362.280256, -1.535156, +0.513550, -0.247437, -129.506927, +179.024277, +270.204742 
1488856362.284212, 1488856362.284212, -1.535156, +0.513550, -0.247437, -129.506927, +171.211777, +281.908234 
1488856362.288162, 1488856362.288162, -1.535156, +0.513550, -0.247437, -135.549408, +173.759995, +281.908234 
1488856362.292116, 1488856362.292116, -1.535156, +0.513550, -0.247437, -135.549408, +173.759995, +281.908234 
1488856362.295947, 1488856362.295947, -1.535156, +0.513550, -0.260620, -149.480682, +168.114243, +293.276031 
1488856362.299698, 1488856362.299698, -1.961304, +0.344971, -0.260620, -149.480682, +168.114243, +293.276031 
1488856362.303503, 1488856362.303503, -1.961304, +0.344971, -0.260620, -149.480682, +168.114243, +293.276031 
1488856362.307251, 1488856362.307251, -1.961304, +0.344971, -0.260620, -164.739471, +165.230331, +303.774078 
1488856362.311004, 1488856362.311004, -1.961304, +0.344971, -0.260620, -164.739471, +165.230331, +303.774078 
1488856362.314927, 1488856362.314927, -1.961304, +0.344971, -0.260620, -164.739471, +165.230331, +303.774078 
1488856362.318685, 1488856362.318685, -2.568237, -0.189087, -0.434082, -172.170502, +162.529526, +311.907013 
1488856362.322433, 1488856362.322433, -2.568237, -0.189087, -0.434082, -172.170502, +162.529526, +311.907013 
1488856362.326456, 1488856362.326456, -2.568237, -0.189087, -0.434082, -172.170502, +162.529526, +311.907013 
1488856362.330397, 1488856362.330397, -2.568237, -0.189087, -0.434082, -170.797211, +156.517563, +312.120636 
1488856362.334359, 1488856362.334359, -2.568237, -0.189087, -0.434082, -170.797211, +156.517563, +312.120636 
1488856362.338307, 1488856362.338307, -3.148071, -0.772461, -0.647461, -170.797211, +156.517563, +296.495636 
1488856362.342247, 1488856362.342247, -3.148071, -0.772461, -0.647461, -160.375458, +147.728500, +297.960480 
1488856362.346049, 1488856362.346049, -3.148071, -0.772461, -0.647461, -160.375458, +147.728500, +297.960480 
1488856362.349953, 1488856362.349953, -3.148071, -0.772461, -0.647461, -160.375458, +132.301865, +265.962799 
1488856362.353832, 1488856362.353832, -3.148071, -0.772461, -0.647461, -159.475189, +132.301865, +265.962799 
1488856362.357719, 1488856362.357719, -2.521851, -1.410156, -0.831055, -159.475189, +132.301865, +265.962799 
1488856362.361778, 1488856362.361778, -2.521851, -1.410156, -0.831055, -150.625092, +132.469711, +228.594040 
1488856362.365603, 1488856362.365603, -2.521851, -1.410156, -0.831055, -150.625092, +132.469711, +228.594040 
1488856362.369347, 1488856362.369347, -2.521851, -1.410156, -0.831055, -150.625092, +132.469711, +228.594040 
1488856362.373096, 1488856362.373096, -2.521851, -1.410156, -0.831055, -115.438332, +128.593979, +183.092331 
1488856362.376837, 1488856362.376837, -2.792603, -3.136108, +0.373779, -115.438332, +128.593979, +183.092331 
1488856362.380580, 1488856362.380580, -2.792603, -3.136108, +0.373779, -115.438332, +128.593979, +183.092331 
1488856362.384324, 1488856362.384324, -2.792603, -3.136108, +0.373779, -80.694069, +89.027931, +121.095863 
1488856362.388088, 1488856362.388088, -2.792603, -3.136108, +0.373779, -80.694069, +89.027931, +121.095863 
1488856362.391950, 1488856362.391950, -2.792603, -3.136108, +0.373779, -80.694069, +89.027931, +121.095863 
1488856362.395761, 1488856362.395761, -2.323853, -2.964355, +0.666992, -35.787453, +45.097878, +59.557171 
1488856362.399512, 1488856362.399512, -2.328857, -2.964355, +0.666992, -35.787453, +45.097878, +59.557171 
1488856362.403412, 1488856362.403412, -2.328857, -2.964355, +0.666992, -35.787453, +45.097878, +59.557171 
1488856362.407167, 1488856362.407167, -2.328857, -2.964355, +0.666992, -23.931372, -2.875754, -16.462118 
1488856362.410910, 1488856362.410910, -2.328857, -2.964355, +0.666992, -23.931372, -2.875754, -16.462118 
1488856362.414854, 1488856362.414854, -2.328857, -2.964355, +0.333008, -23.931372, -2.875754, -93.229088 
1488856362.418777, 1488856362.418777, -2.116211, -2.284546, +0.333008, -23.229467, -45.630882, -93.229088 
1488856362.422698, 1488856362.422698, -2.116211, -2.284546, +0.333008, -23.229467, -45.630882, -93.229088 
1488856362.426596, 1488856362.426596, -2.116211, -2.284546, +0.333008, -24.236547, -69.327782, -155.591751 
1488856362.430485, 1488856362.430485, -2.116211, -2.284546, +0.333008, -24.236547, -69.327782, -155.591751 
1488856362.434399, 1488856362.434399, -2.116211, -2.284546, +0.333008, -24.236547, -69.327782, -155.591751 
1488856362.438343, 1488856362.438343, -2.213135, -1.173096, -0.820679, -37.328590, -83.625267, -200.956131 
1488856362.442289, 1488856362.442289, -2.213135, -1.173096, -0.820679, -37.328590, -83.625267, -200.956131 
1488856362.446072, 1488856362.446072, -2.213135, -1.173096, -0.820679, -37.328590, -83.625267, -200.956131 
1488856362.449815, 1488856362.449815, -2.213135, -1.173096, -0.820679, -55.211891, -77.125023, -197.934891 
1488856362.453849, 1488856362.453849, -2.213135, -1.173096, -0.820679, -55.211891, -77.125023, -197.934891 
1488856362.457737, 1488856362.457737, -1.697876, +3.637451, -1.963989, -55.211891, -77.125023, -197.934891 
1488856362.461731, 1488856362.461731, -1.697876, +3.637451, -1.963989, -50.161232, -66.413353, -162.442947 
1488856362.465478, 1488856362.465478, -1.697876, +3.637451, -1.963989, -50.161232, -66.413353, -162.442947 
1488856362.469215, 1488856362.469215, -1.697876, +3.637451, -1.963989, -50.161232, -66.413353, -96.860680 
1488856362.473005, 1488856362.473005, -1.697876, +3.637451, -1.963989, +136.926788, -50.605247, -96.860680 
1488856362.476738, 1488856362.476738, -3.292358, -0.414185, +1.277710, +136.926788, -50.605247, -96.860680 
1488856362.480478, 1488856362.480478, -3.292358, -0.414185, +1.277710, +136.926788, -50.605247, -150.419022 
1488856362.484277, 1488856362.484277, -3.292358, -0.414185, +1.277710, +117.899071, -50.834129, -150.419022 
1488856362.488021, 1488856362.488021, -3.292358, -0.414185, +1.277710, +117.899071, -50.834129, -150.419022 
1488856362.491766, 1488856362.491766, -3.292358, -0.414185, +1.277710, -52.678932, -76.743553, -238.294388 
1488856362.495572, 1488856362.495572, -1.364136, -0.619995, -0.404053, -52.678932, -76.743553, -238.294388 
1488856362.499311, 1488856362.499311, -1.364136, -0.619995, -0.404053, -52.678932, -76.743553, -238.294388 
1488856362.503139, 1488856362.503139, -1.364136, -0.619995, -0.404053, -27.990210, -45.020531, -210.660721 
1488856362.506886, 1488856362.506886, -1.364136, -0.619995, -0.404053, -27.990210, -45.020531, -210.660721 
1488856362.510620, 1488856362.510620, -1.364136, -0.619995, -0.404053, -27.990210, -45.020531, -210.660721 
1488856362.514525, 1488856362.514525, -1.364136, -1.167236, -0.147217, +12.308252, -44.410179, -179.425980 
1488856362.518264, 1488856362.518264, -0.429321, -1.167236, -0.147217, +12.308252, -44.410179, -179.425980 
1488856362.522001, 1488856362.522001, -0.429321, -1.167236, -0.147217, +12.308252, -44.410179, -179.425980 
1488856362.525784, 1488856362.525784, -0.429321, -1.167236, -0.147217, +7.654321, -12.748190, -160.489822 
1488856362.529518, 1488856362.529518, -0.429321, -1.167236, -0.147217, +7.654321, -12.748190, -160.489822 
1488856362.533299, 1488856362.533299, -0.429321, -1.167236, -0.147217, +7.654321, -12.748190, -160.489822 
1488856362.537158, 1488856362.537158, -0.581543, -0.534058, -0.679321, +10.202539, -4.386374, -148.740555 
1488856362.540908, 1488856362.540908, -0.581543, -0.534058, -0.679321, +10.202539, -4.386374, -148.740555 
1488856362.544754, 1488856362.544754, -0.581543, -0.534058, -0.679321, +10.202539, -4.386374, -148.740555 
1488856362.548699, 1488856362.548699, -0.581543, -0.534058, -0.679321, +53.217064, -14.640280, -130.063797 
1488856362.552637, 1488856362.552637, -0.581543, -0.534058, -0.679321, +53.217064, -14.640280, -130.063797 
1488856362.556589, 1488856362.556589, -1.484497, -0.724609, -0.612915, +53.217064, -26.359030, -102.201256 
1488856362.560533, 1488856362.560533, -1.484497, -0.724609, -0.612915, +89.273582, -27.320333, -102.201256 
1488856362.564498, 1488856362.564498, -1.484497, -0.724609, -0.612915, +89.273582, -27.320333, -102.201256 
1488856362.568439, 1488856362.568439, -1.484497, -0.724609, -0.612915, +112.695824, -27.213522, -64.008507 
1488856362.573026, 1488856362.573026, -1.484497, -0.724609, -0.612915, +112.695824, -27.213522, -64.008507 
1488856362.576982, 1488856362.576982, -1.784546, -0.088989, -0.068726, +112.695824, -27.213522, -64.008507 
1488856362.580922, 1488856362.580922, -1.784546, -0.088989, -0.068726, +112.497459, -25.733419, -42.814045 
1488856362.584824, 1488856362.584824, -1.784546, -0.088989, -0.068726, +112.497459, -25.733419, -42.814045 
1488856362.588574, 1488856362.588574, -1.784546, -0.088989, -0.068726, +112.497459, -25.733419, -42.814045 
1488856362.592321, 1488856362.592321, -1.784546, -0.088989, -0.068726, +92.157494, -30.494162, -46.338825 
1488856362.596245, 1488856362.596245, -1.193970, +0.345825, -0.157959, +92.157494, -30.494162, -46.338825 
1488856362.600184, 1488856362.600184, -1.193970, +0.345825, -0.157959, +92.157494, -26.587912, -52.289753 
1488856362.604088, 1488856362.604088, -1.193970, +0.345825, -0.157959, +52.148949, -24.970480, -52.289753 
1488856362.607837, 1488856362.607837, -1.193970, +0.345825, -0.157959, +52.148949, -24.970480, -52.289753 
1488856362.611586, 1488856362.611586, -1.193970, +0.345825, -0.157959, +15.878809, -15.189596, -52.228718 
1488856362.615480, 1488856362.615480, -1.048462, -0.209839, -0.116455, +15.878809, -15.189596, -52.228718 
1488856362.619227, 1488856362.619227, -1.048462, -0.209839, -0.116455, +15.878809, -15.189596, -52.228718 
1488856362.623116, 1488856362.623116, -1.048462, -0.209839, -0.116455, +5.563867, -9.803244, -48.414021 
1488856362.627061, 1488856362.627061, -1.048462, -0.209839, -0.116455, +5.563867, -9.803244, -48.414021 
1488856362.630996, 1488856362.630996, -1.048462, -0.209839, -0.116455, +5.563867, -9.803244, -48.414021 
1488856362.634856, 1488856362.634856, -1.175049, -0.453003, -0.406616, +9.851587, -7.819602, -37.519245 
1488856362.638599, 1488856362.638599, -1.175049, -0.453003, -0.406616, +9.851587, -7.819602, -37.519245 
1488856362.642348, 1488856362.642348, -1.175049, -0.453003, -0.406616, +9.851587, -7.819602, -37.519245 
1488856362.646304, 1488856362.646304, -1.175049, -0.453003, -0.406616, +32.892357, -9.269186, -21.116049 
1488856362.650250, 1488856362.650250, -1.175049, -0.453003, -0.406616, +32.892357, -9.269186, -21.116049 
1488856362.654195, 1488856362.654195, -1.135742, -0.377075, -0.630249, +32.892357, -9.269186, -4.331380 
1488856362.658135, 1488856362.658135, -1.135742, -0.377075, -0.630249, +61.365257, -10.749289, -4.331380 
1488856362.662089, 1488856362.662089, -1.135742, -0.377075, -0.630249, +61.365257, -10.749289, -4.331380 
1488856362.666071, 1488856362.666071, -1.135742, -0.377075, -0.630249, +80.255638, -10.703512, +5.327433 
1488856362.670742, 1488856362.670742, -1.135742, -0.377075, -0.630249, +80.255638, -10.703512, +5.327433 
1488856362.674621, 1488856362.674621, -1.138916, +0.045410, -0.372314, +80.255638, -10.703512, +5.327433 
1488856362.678366, 1488856362.678366, -1.138916, +0.045410, -0.372314, +81.247459, -10.596701, +6.609171 
1488856362.682106, 1488856362.682106, -1.138916, +0.045410, -0.372314, +81.247459, -10.596701, +6.609171 
1488856362.685862, 1488856362.685862, -1.138916, +0.045410, -0.372314, +81.247459, -10.596701, +6.609171 
1488856362.689712, 1488856362.689712, -1.138916, +0.045410, -0.372314, +71.222435, -12.137838, +3.160685 
1488856362.693494, 1488856362.693494, -1.138916, +0.249756, -0.366943, +71.222435, -12.137838, +3.160685 
1488856362.697236, 1488856362.697236, -1.146240, +0.249756, -0.366943, +71.222435, -12.137838, +3.160685 
1488856362.700976, 1488856362.700976, -1.146240, +0.249756, -0.366943, +62.646996, -12.000509, +2.763957 
1488856362.704724, 1488856362.704724, -1.146240, +0.249756, -0.366943, +62.646996, -12.000509, +2.763957 
1488856362.708459, 1488856362.708459, -1.146240, +0.249756, -0.366943, +62.646996, -12.000509, +2.763957 
1488856362.712204, 1488856362.712204, -1.146240, +0.249756, -0.335693, +60.495506, -15.906759, -0.776083 
1488856362.716103, 1488856362.716103, -1.232300, -0.081299, -0.313843, +60.495506, -15.906759, -0.776083 
1488856362.719858, 1488856362.719858, -1.232300, -0.081299, -0.313843, +60.495506, -15.906759, -7.138998 
1488856362.723761, 1488856362.723761, -1.232300, -0.081299, -0.313843, +66.232811, -25.580832, -7.138998 
1488856362.727512, 1488856362.727512, -1.232300, -0.081299, -0.313843, +66.232811, -25.580832, -7.138998 
1488856362.731259, 1488856362.731259, -1.232300, -0.081299, -0.313843, +70.139061, -32.355736, -12.800009 
1488856362.735138, 1488856362.735138, -0.954468, +0.171143, -0.446777, +68.079124, -32.355736, -12.800009 
1488856362.739089, 1488856362.739089, -0.954468, +0.171143, -0.446777, +68.079124, -32.355736, -12.800009 
1488856362.743042, 1488856362.743042, -0.954468, +0.171143, -0.446777, +67.484032, -33.576439, -17.560751 
1488856362.746993, 1488856362.746993, -0.954468, +0.171143, -0.446777, +67.484032, -33.576439, -17.560751 
1488856362.750940, 1488856362.750940, -0.954468, +0.171143, -0.446777, +67.484032, -33.576439, -17.560751 
1488856362.754903, 1488856362.754903, -0.929565, +0.177124, -0.531250, +62.372337, -36.750267, -25.205404 
1488856362.758847, 1488856362.758847, -0.929565, +0.177124, -0.531250, +62.372337, -36.750267, -25.205404 
1488856362.762796, 1488856362.762796, -0.929565, +0.177124, -0.531250, +62.372337, -36.750267, -25.205404 
1488856362.766767, 1488856362.766767, -0.929565, +0.177124, -0.531250, +56.772362, -40.427635, -31.919271 
1488856362.770704, 1488856362.770704, -0.929565, +0.177124, -0.531250, +56.772362, -40.427635, -31.919271 
1488856362.774631, 1488856362.774631, -0.903809, +0.049194, -0.536743, +56.772362, -42.991112, -38.068562 
1488856362.778374, 1488856362.778374, -0.903809, +0.049194, -0.536743, +55.215965, -42.991112, -38.068562 
1488856362.782293, 1488856362.782293, -0.903809, +0.049194, -0.536743, +55.215965, -42.991112, -38.068562 
1488856362.786396, 1488856362.786396, -0.903809, +0.049194, -0.536743, +53.293358, -45.997093, -45.026569 
1488856362.790135, 1488856362.790135, -0.903809, +0.049194, -0.536743, +53.293358, -45.997093, -45.026569 
1488856362.793924, 1488856362.793924, -0.897217, +0.000366, -0.485840, +53.293358, -45.997093, -45.026569 
1488856362.797666, 1488856362.797666, -0.897217, +0.000366, -0.485840, +53.018700, -48.621605, -51.282673 
1488856362.801412, 1488856362.801412, -0.897217, +0.000366, -0.485840, +53.018700, -48.621605, -51.282673 
1488856362.805210, 1488856362.805210, -0.897217, +0.000366, -0.485840, +53.018700, -48.621605, -51.282673 
1488856362.808956, 1488856362.808956, -0.897217, +0.000366, -0.485840, +51.370750, -50.361107, -56.913166 
1488856362.812704, 1488856362.812704, -1.053711, +0.011841, -0.339478, +51.370750, -50.361107, -56.913166 
1488856362.816447, 1488856362.816447, -1.053711, +0.011841, -0.339478, +51.370750, -50.361107, -56.913166 
1488856362.820194, 1488856362.820194, -1.053711, +0.011841, -0.339478, +47.083031, -52.787254, -61.902790 
1488856362.823944, 1488856362.823944, -1.053711, +0.011841, -0.339478, +47.083031, -52.787254, -61.902790 
1488856362.827692, 1488856362.827692, -1.053711, +0.011841, -0.339478, +47.083031, -52.787254, -61.902790 
1488856362.831432, 1488856362.831432, -1.053711, +0.011841, -0.245728, +41.528831, -56.128929, -66.404137 
1488856362.835465, 1488856362.835465, -1.245239, -0.002197, -0.238525, +41.528831, -56.128929, -66.404137 
1488856362.839216, 1488856362.839216, -1.245239, -0.002197, -0.238525, +41.528831, -56.128929, -74.216637 
1488856362.843099, 1488856362.843099, -1.245239, -0.002197, -0.238525, +38.110863, -58.967064, -71.454796 
1488856362.847050, 1488856362.847050, -1.245239, -0.002197, -0.238525, +38.110863, -58.967064, -71.454796 
1488856362.850989, 1488856362.850989, -1.245239, -0.002197, -0.238525, +34.204613, -62.629173, -77.482018 
1488856362.854950, 1488856362.854950, -1.379639, +0.208008, -0.278320, +34.875999, -62.629173, -77.482018 
1488856362.858896, 1488856362.858896, -1.379639, +0.208008, -0.278320, +34.875999, -62.629173, -77.482018 
1488856362.862841, 1488856362.862841, -1.379639, +0.208008, -0.278320, +34.586082, -66.337059, -85.264000 
1488856362.866793, 1488856362.866793, -1.379639, +0.208008, -0.278320, +34.586082, -66.337059, -85.264000 
1488856362.870775, 1488856362.870775, -1.379639, +0.208008, -0.278320, +34.586082, -66.337059, -85.264000 
1488856362.874619, 1488856362.874619, -1.485474, +0.249512, -0.295654, +33.563744, -73.127220, -94.663414 
1488856362.878941, 1488856362.878941, -1.485474, +0.249512, -0.295654, +33.563744, -73.127220, -94.663414 
1488856362.882687, 1488856362.882687, -1.485474, +0.249512, -0.295654, +33.563744, -73.127220, -94.663414 
1488856362.886433, 1488856362.886433, -1.485474, +0.249512, -0.295654, +38.293968, -78.650902, -101.484093 
1488856362.890171, 1488856362.890171, -1.485474, +0.249512, -0.295654, +38.293968, -78.650902, -101.484093 
1488856362.893917, 1488856362.893917, -1.663818, +0.279785, -0.397827, +38.293968, -78.650902, -107.023033 
1488856362.897657, 1488856362.897657, -1.663818, +0.279785, -0.397827, +39.621483, -83.014915, -107.023033 
1488856362.901391, 1488856362.901391, -1.663818, +0.279785, -0.397827, +39.621483, -83.014915, -107.023033 
1488856362.905182, 1488856362.905182, -1.663818, +0.279785, -0.397827, +39.621483, -90.827415, -114.698204 
1488856362.908924, 1488856362.908924, -1.663818, +0.279785, -0.397827, +41.818748, -88.019798, -114.698204 
1488856362.912662, 1488856362.912662, -1.892944, +0.380249, -0.529785, +41.818748, -88.019798, -114.698204 
1488856362.916404, 1488856362.916404, -1.892944, +0.380249, -0.529785, +49.631248, -93.192528, -123.395714 
1488856362.920144, 1488856362.920144, -1.892944, +0.380249, -0.529785, +47.952782, -93.192528, -123.395714 
1488856362.923984, 1488856362.923984, -1.892944, +0.380249, -0.529785, +47.952782, -93.192528, -123.395714 
1488856362.927736, 1488856362.927736, -1.892944, +0.380249, -0.529785, +59.488426, -99.677513, -129.758621 
1488856362.931483, 1488856362.931483, -1.892944, +0.719360, -0.856812, +59.488426, -99.677513, -129.758621 
1488856362.935442, 1488856362.935442, -2.030884, +0.719360, -0.856812, +59.488426, -99.677513, -129.758621 
1488856362.939365, 1488856362.939365, -2.030884, +0.719360, -0.856812, +75.616966, -105.170677, -134.122635 
1488856362.943297, 1488856362.943297, -2.030884, +0.719360, -0.856812, +75.616966, -105.170677, -134.122635 
1488856362.947226, 1488856362.947226, -2.030884, +0.719360, -0.856812, +75.616966, -105.170677, -134.122635 
1488856362.951149, 1488856362.951149, -2.030884, +1.303955, -1.217896, +96.796165, -111.533592, -136.106277 
1488856362.955081, 1488856362.955081, -2.230957, +1.303955, -1.217896, +96.796165, -111.533592, -136.106277 
1488856362.958997, 1488856362.958997, -2.230957, +1.303955, -1.217896, +96.796165, -111.533592, -136.106277 
1488856362.962911, 1488856362.962911, -2.230957, +1.303955, -1.217896, +118.814598, -120.200584, -133.435989 
1488856362.966875, 1488856362.966875, -2.230957, +1.303955, -1.217896, +118.814598, -120.200584, -133.435989 
1488856362.970786, 1488856362.970786, -2.230957, +0.991455, -1.272095, +130.533356, -125.770042, -133.771683 
1488856362.974725, 1488856362.974725, -2.675415, +0.999878, -1.272095, +131.723541, -125.770042, -133.771683 
1488856362.978647, 1488856362.978647, -2.675415, +0.999878, -1.272095, +131.723541, -125.770042, -133.771683 
1488856362.982675, 1488856362.982675, -2.675415, +0.999878, -1.272095, +123.132835, -122.794579, -142.804886 
1488856362.986635, 1488856362.986635, -2.675415, +0.999878, -1.272095, +123.132835, -122.794579, -142.804886 
1488856362.990803, 1488856362.990803, -2.675415, +0.790039, -1.826782, +123.132835, -122.794579, -142.804886 
1488856362.995058, 1488856362.995058, -2.744751, +0.790039, -1.826782, +115.213524, -118.125389, -141.584183 
1488856362.999004, 1488856362.999004, -2.744751, +0.790039, -1.826782, +115.213524, -118.125389, -141.584183 
1488856363.002949, 1488856363.002949, -2.744751, +0.790039, -1.826782, +115.213524, -125.937889, -128.690506 
1488856363.006953, 1488856363.006953, -2.744751, +0.790039, -1.826782, +126.123558, -125.815819, -128.690506 
1488856363.010896, 1488856363.010896, -1.994751, +0.626221, -1.573730, +126.123558, -125.815819, -128.690506 
1488856363.014890, 1488856363.014890, -1.995972, +0.626221, -1.573730, +102.686058, -137.870255, -120.069298 
1488856363.018833, 1488856363.018833, -1.995972, +0.626221, -1.573730, +102.686058, -137.870255, -120.069298 
1488856363.022772, 1488856363.022772, -1.995972, +0.626221, -1.573730, +102.686058, -137.870255, -120.069298 
1488856363.026544, 1488856363.026544, -1.995972, +0.626221, -1.573730, +36.661278, -133.216324, -119.901451 
1488856363.030293, 1488856363.030293, -1.995972, +0.094971, -0.785034, +36.661278, -133.216324, -119.901451 
1488856363.034084, 1488856363.034084, -1.241577, +0.120239, -0.785034, +36.661278, -133.216324, -119.901451 
1488856363.037828, 1488856363.037828, -1.241577, +0.120239, -0.785034, -27.837622, -125.434349, -136.411453 
1488856363.041585, 1488856363.041585, -1.241577, +0.120239, -0.785034, -27.837622, -125.434349, -136.411453 
1488856363.045503, 1488856363.045503, -1.241577, +0.120239, -0.785034, -27.837622, -125.434349, -136.411453 
1488856363.049258, 1488856363.049258, -1.241577, +0.120239, -0.785034, -85.958351, -80.817650, -128.888870 
1488856363.053120, 1488856363.053120, -0.977417, -1.202271, -0.397705, -85.958351, -80.817650, -128.888870 
1488856363.057069, 1488856363.057069, -0.977417, -1.202271, -0.397705, -85.958351, -80.817650, -68.845543 
1488856363.061012, 1488856363.061012, -0.977417, -1.202271, -0.397705, -77.535500, +3.304056, -68.845543 
1488856363.064963, 1488856363.064963, -0.977417, -1.202271, -0.397705, -77.535500, +3.304056, -68.845543 
1488856363.068906, 1488856363.068906, -0.977417, -1.202271, -0.397705, -6.292212, -9.208151, -3.766805 
1488856363.072840, 1488856363.072840, -0.748169, +0.061035, -1.034546, -6.292212, -9.208151, -3.766805 
1488856363.076606, 1488856363.076606, -0.748169, +0.061035, -1.034546, -6.292212, -9.208151, -3.766805 
1488856363.080515, 1488856363.080515, -0.748169, +0.061035, -1.034546, +24.927271, -38.810204, +31.145304 
1488856363.084447, 1488856363.084447, -0.748169, +0.061035, -1.034546, +24.927271, -38.810204, +31.145304 
1488856363.088950, 1488856363.088950, -0.748169, +0.061035, -1.034546, +24.927271, -38.810204, +31.145304 
1488856363.092696, 1488856363.092696, +0.314819, +0.777832, -0.419189, +58.130394, -35.682152, +70.268837 
1488856363.096442, 1488856363.096442, +0.314819, +0.777832, -0.419189, +58.130394, -35.682152, +70.268837 
1488856363.100179, 1488856363.100179, +0.314819, +0.777832, -0.419189, +58.130394, -35.682152, +70.268837 
1488856363.103925, 1488856363.103925, +0.314819, +0.777832, -0.419189, +77.600609, -8.033224, +108.370033 
1488856363.107664, 1488856363.107664, +0.314819, +0.777832, -0.419189, +77.600609, -8.033224, +108.370033 
1488856363.111403, 1488856363.111403, +0.132690, +1.036865, +0.181885, +77.600609, -8.033224, +135.713791 
1488856363.115196, 1488856363.115196, +0.132690, +1.036865, +0.181885, +36.050926, +23.796610, +134.340500 
1488856363.118940, 1488856363.118940, +0.132690, +1.036865, +0.181885, +36.050926, +23.796610, +134.340500 
1488856363.122687, 1488856363.122687, +0.132690, +1.036865, +0.181885, +36.050926, +23.796610, +151.872849 
1488856363.126432, 1488856363.126432, +0.132690, +1.036865, +0.181885, -33.422340, +46.776344, +151.872849 
1488856363.130292, 1488856363.130292, -0.264771, +0.270264, -0.236572, -33.422340, +46.776344, +151.872849 
1488856363.134199, 1488856363.134199, -0.264771, +0.270264, -0.236572, -76.391090, +69.588234, +168.794846 
1488856363.137947, 1488856363.137947, -0.264771, +0.270264, -0.236572, -74.987282, +69.588234, +168.794846 
1488856363.141701, 1488856363.141701, -0.264771, +0.270264, -0.236572, -74.987282, +69.588234, +168.794846 
1488856363.145714, 1488856363.145714, -0.264771, +0.270264, -0.236572, -95.891823, +87.303688, +184.770798 
1488856363.149665, 1488856363.149665, -0.264771, +0.331787, -0.309204, -95.891823, +87.303688, +184.770798 
1488856363.153609, 1488856363.153609, -0.432617, +0.331787, -0.309204, -95.891823, +87.303688, +184.770798 
1488856363.157555, 1488856363.157555, -0.432617, +0.331787, -0.309204, -104.589333, +100.243141, +200.731491 
1488856363.161507, 1488856363.161507, -0.432617, +0.331787, -0.309204, -104.589333, +100.243141, +200.731491 
1488856363.165503, 1488856363.165503, -0.432617, +0.331787, -0.309204, -104.589333, +100.243141, +200.731491 
1488856363.169449, 1488856363.169449, -0.432617, +0.206299, -0.376221, -108.983864, +111.809303, +216.173386 
1488856363.173375, 1488856363.173375, -0.365112, +0.206299, -0.376221, -108.983864, +111.809303, +216.173386 
1488856363.177130, 1488856363.177130, -0.365112, +0.206299, -0.376221, -108.983864, +111.809303, +229.250168 
1488856363.180881, 1488856363.180881, -0.365112, +0.206299, -0.376221, -112.829079, +126.778175, +229.250168 
1488856363.184735, 1488856363.184735, -0.365112, +0.206299, -0.376221, -112.829079, +126.778175, +229.250168 
1488856363.188682, 1488856363.188682, -0.365112, +0.206299, -0.282471, -125.448097, +139.488754, +239.427780 
1488856363.192626, 1488856363.192626, -0.635864, +0.259766, -0.303833, -125.448097, +139.488754, +239.427780 
1488856363.196657, 1488856363.196657, -0.635864, +0.259766, -0.303833, -125.448097, +139.488754, +239.427780 
1488856363.200781, 1488856363.200781, -0.635864, +0.259766, -0.303833, -141.393524, +147.652206, +247.011398 
1488856363.205042, 1488856363.205042, -0.635864, +0.259766, -0.303833, -141.393524, +147.652206, +247.011398 
1488856363.208987, 1488856363.208987, -0.635864, +0.259766, -0.507690, -141.393524, +147.652206, +247.011398 
1488856363.212930, 1488856363.212930, -0.870361, +0.269165, -0.507690, -155.263763, +154.762802, +253.572678 
1488856363.216934, 1488856363.216934, -0.870361, +0.269165, -0.507690, -155.263763, +154.762802, +253.572678 
1488856363.220880, 1488856363.220880, -0.870361, +0.269165, -0.507690, -155.263763, +162.575302, +261.476715 
1488856363.224749, 1488856363.224749, -0.870361, +0.269165, -0.507690, -166.311127, +162.102280, +261.476715 
1488856363.228501, 1488856363.228501, -0.870361, +0.269165, -0.632690, -166.311127, +162.102280, +261.476715 
1488856363.232251, 1488856363.232251, -1.033325, +0.275757, -0.635132, -171.789032, +168.739853, +270.906647 
1488856363.236017, 1488856363.236017, -1.033325, +0.275757, -0.635132, -171.789032, +168.739853, +270.906647 
1488856363.239767, 1488856363.239767, -1.033325, +0.275757, -0.635132, -171.789032, +168.739853, +270.906647 
1488856363.243530, 1488856363.243530, -1.033325, +0.275757, -0.635132, -179.082733, +173.973618, +281.038483 
1488856363.247282, 1488856363.247282, -1.033325, +0.275757, -0.635132, -179.082733, +173.973618, +281.038483 
1488856363.251035, 1488856363.251035, -1.513428, +0.242188, -0.674316, -179.082733, +173.973618, +281.038483 
1488856363.254940, 1488856363.254940, -1.513428, +0.242188, -0.674316, -182.988983, +174.400864, +291.963776 
1488856363.258695, 1488856363.258695, -1.513428, +0.242188, -0.674316, -182.988983, +174.400864, +291.963776 
1488856363.262440, 1488856363.262440, -1.513428, +0.242188, -0.674316, -182.988983, +174.400864, +291.963776 
1488856363.266463, 1488856363.266463, -1.513428, +0.242188, -0.674316, -179.220062, +168.480453, +304.262360 
1488856363.270404, 1488856363.270404, -2.037964, -0.173828, -0.887329, -179.220062, +168.480453, +304.262360 
1488856363.274427, 1488856363.274427, -2.037964, -0.173828, -0.887329, -179.220062, +168.480453, +304.262360 
1488856363.278183, 1488856363.278183, -2.037964, -0.173828, -0.887329, -168.462616, +162.819443, +316.393097 
1488856363.281928, 1488856363.281928, -2.037964, -0.173828, -0.887329, -168.462616, +162.819443, +316.393097 
1488856363.285826, 1488856363.285826, -2.037964, -0.173828, -0.887329, -168.462616, +162.819443, +327.181061 
1488856363.289786, 1488856363.289786, -2.284302, -0.771973, -1.168701, -143.712860, +161.552963, +327.181061 
1488856363.293644, 1488856363.293644, -2.284302, -0.771973, -1.168701, -143.712860, +161.552963, +327.181061 
1488856363.297531, 1488856363.297531, -2.284302, -0.771973, -1.168701, -107.335915, +164.436874, +332.735260 
1488856363.301586, 1488856363.301586, -2.284302, -0.771973, -1.168701, -107.335915, +164.436874, +332.735260 
1488856363.305405, 1488856363.305405, -2.284302, -0.771973, -1.168701, -107.335915, +164.436874, +332.735260 
1488856363.309146, 1488856363.309146, -2.636597, -1.396118, -1.027344, -69.921364, +171.944199, +325.609406 
1488856363.312888, 1488856363.312888, -2.636597, -1.396118, -1.027344, -69.921364, +171.944199, +325.609406 
1488856363.316629, 1488856363.316629, -2.636597, -1.396118, -1.027344, -69.921364, +171.944199, +325.609406 
1488856363.320368, 1488856363.320368, -2.636597, -1.396118, -1.027344, -37.404884, +176.048813, +303.590973 
1488856363.324108, 1488856363.324108, -2.636597, -1.396118, -1.027344, -37.404884, +176.048813, +303.590973 
1488856363.327850, 1488856363.327850, -2.636597, -1.396118, -0.684204, -37.404884, +176.048813, +303.590973 
1488856363.331589, 1488856363.331589, -2.917847, -1.442749, -0.684204, +1.825464, +168.724594, +277.406891 
1488856363.335374, 1488856363.335374, -2.917847, -1.442749, -0.684204, +1.825464, +168.724594, +277.406891 
1488856363.339111, 1488856363.339111, -2.917847, -1.442749, -0.684204, +1.825464, +168.724594, +277.406891 
1488856363.342849, 1488856363.342849, -2.917847, -1.442749, -0.684204, +45.923363, +148.155746, +250.429367 
1488856363.346688, 1488856363.346688, -2.917847, -1.442749, -0.684204, +45.923363, +148.155746, +250.429367 
1488856363.350437, 1488856363.350437, -2.637573, -2.342163, +0.321899, +45.923363, +148.155746, +250.429367 
1488856363.354405, 1488856363.354405, -2.637573, -2.342163, +0.321899, +53.674828, +113.350441, +191.911911 
1488856363.358357, 1488856363.358357, -2.637573, -2.342163, +0.321899, +53.674828, +113.350441, +191.911911 
1488856363.362302, 1488856363.362302, -2.637573, -2.342163, +0.321899, +53.674828, +86.006691, +110.048500 
1488856363.366295, 1488856363.366295, -2.637573, -2.342163, +0.321899, +44.504295, +85.030128, +110.048500 
1488856363.370241, 1488856363.370241, -2.452637, -2.847046, +1.287964, +44.504295, +85.030128, +110.048500 
1488856363.374147, 1488856363.374147, -2.452637, -2.847046, +1.287964, +47.021996, +41.176369, +25.850504 
1488856363.377894, 1488856363.377894, -2.452637, -2.847046, +1.287964, +47.021996, +41.176369, +25.850504 
1488856363.381642, 1488856363.381642, -2.452637, -2.847046, +1.287964, +47.021996, +41.176369, +25.850504 
1488856363.385519, 1488856363.385519, -2.452637, -2.847046, +1.287964, +40.231834, -19.065329, -58.057575 
1488856363.389445, 1488856363.389445, -2.320557, -2.262329, +0.949219, +40.231834, -19.065329, -58.057575 
1488856363.393381, 1488856363.393381, -2.320557, -2.262329, +0.949219, +40.231834, -19.065329, -58.057575 
1488856363.397143, 1488856363.397143, -2.320557, -2.262329, +0.949219, +30.649317, -60.340355, -128.659988 
1488856363.400901, 1488856363.400901, -2.320557, -2.262329, +0.949219, +30.649317, -60.340355, -128.659988 
1488856363.404841, 1488856363.404841, -2.320557, -2.262329, +0.949219, +30.649317, -60.340355, -128.659988 
1488856363.408767, 1488856363.408767, -2.273193, -0.670898, -0.037964, +16.061914, -76.270531, -181.775833 
1488856363.412560, 1488856363.412560, -2.273193, -0.670898, -0.037964, +16.061914, -76.270531, -181.775833 
1488856363.416386, 1488856363.416386, -2.273193, -0.670898, -0.037964, +16.061914, -76.270531, -209.119583 
1488856363.420242, 1488856363.420242, -2.273193, -0.670898, -0.037964, -23.153173, -82.267235, -210.569168 
1488856363.424088, 1488856363.424088, -2.273193, -0.670898, -0.037964, -23.153173, -82.267235, -210.569168 
1488856363.427834, 1488856363.427834, -1.241943, +3.411499, -2.032349, -23.153173, -78.360985, -209.623123 
1488856363.431573, 1488856363.431573, -1.241577, +3.411499, -2.032349, -83.883156, -77.872704, -209.623123 
1488856363.435382, 1488856363.435382, -1.241577, +3.411499, -2.032349, -83.883156, -77.872704, -209.623123 
1488856363.439128, 1488856363.439128, -1.241577, +3.411499, -2.032349, -71.676125, -50.651024, -143.491531 
1488856363.442868, 1488856363.442868, -1.241577, +3.411499, -2.032349, -71.676125, -50.651024, -143.491531 
1488856363.446615, 1488856363.446615, -1.241577, +3.411499, -2.032349, -71.676125, -50.651024, -143.491531 
1488856363.450361, 1488856363.450361, -2.848145, +0.748169, +0.655273, +60.510765, -17.264791, -103.788170 
1488856363.454193, 1488856363.454193, -2.848145, +0.748169, +0.655273, +60.510765, -17.264791, -103.788170 
1488856363.457937, 1488856363.457937, -2.848145, +0.748169, +0.655273, +60.510765, -17.264791, -103.788170 
1488856363.461692, 1488856363.461692, -2.848145, +0.748169, +0.655273, -11.648046, -39.603661, -181.348587 
1488856363.465614, 1488856363.465614, -2.848145, +0.748169, +0.655273, -11.648046, -39.603661, -181.348587 
1488856363.469367, 1488856363.469367, -2.577881, -2.540527, +0.393555, -11.648046, -39.603661, -181.348587 
1488856363.473120, 1488856363.473120, -2.577881, -2.540527, +0.393555, -109.655251, -55.015038, -238.416458 
1488856363.477071, 1488856363.477071, -2.577881, -2.540527, +0.393555, -109.655251, -55.015038, -238.416458 
1488856363.481020, 1488856363.481020, -2.577881, -2.540527, +0.393555, -109.655251, -55.015038, -238.416458 
1488856363.484972, 1488856363.484972, -2.577881, -2.540527, +0.393555, -62.429298, -31.196066, -212.949539 
1488856363.488916, 1488856363.488916, -0.860352, -1.267212, -1.379639, -62.429298, -31.196066, -212.949539 
1488856363.492860, 1488856363.492860, -0.860352, -1.267212, -1.379639, -62.429298, -31.196066, -189.451004 
1488856363.496872, 1488856363.496872, -0.860352, -1.267212, -1.379639, +6.433618, -32.874535, -189.451004 
1488856363.500619, 1488856363.500619, -0.860352, -1.267212, -1.379639, +6.433618, -32.874535, -189.451004 
1488856363.504551, 1488856363.504551, -0.860352, -1.267212, -1.379639, +71.115623, -19.736715, -159.650589 
1488856363.508870, 1488856363.508870, -0.813965, -1.044678, -0.201538, +71.115623, -19.736715, -159.650589 
1488856363.512619, 1488856363.512619, -0.813965, -1.044678, -0.201538, +71.115623, -19.736715, -159.650589 
1488856363.516398, 1488856363.516398, -0.813965, -1.044678, -0.201538, +126.154076, -33.637474, -125.440392 
1488856363.520143, 1488856363.520143, -0.813965, -1.044678, -0.201538, +126.154076, -33.637474, -125.440392 
1488856363.523890, 1488856363.523890, -0.813965, -1.044678, -0.201538, +126.154076, -33.637474, -125.440392 
1488856363.527634, 1488856363.527634, -0.857666, -0.399536, -0.491821, +184.061188, -40.030907, -88.559898 
1488856363.531376, 1488856363.531376, -0.857666, -0.399536, -0.491821, +184.061188, -40.030907, -88.559898 
1488856363.535174, 1488856363.535174, -0.857666, -0.399536, -0.491821, +184.061188, -40.030907, -88.559898 
1488856363.538912, 1488856363.538912, -0.857666, -0.399536, -0.491821, +183.984894, -35.849998, -52.945881 
1488856363.542662, 1488856363.542662, -0.857666, -0.399536, -0.491821, +183.984894, -35.849998, -52.945881 
1488856363.546415, 1488856363.546415, -0.857666, +0.412964, -0.040405, +183.984894, -35.849998, -52.945881 
1488856363.550156, 1488856363.550156, -1.887451, +0.415039, -0.040405, +134.607452, -25.214621, -42.783527 
1488856363.554004, 1488856363.554004, -1.887451, +0.415039, -0.040405, +134.607452, -25.214621, -42.783527 
1488856363.557757, 1488856363.557757, -1.887451, +0.415039, -0.040405, +134.607452, -25.214621, -42.783527 
1488856363.561499, 1488856363.561499, -1.887451, +0.415039, -0.040405, +75.204979, -29.014059, -57.325153 
1488856363.565575, 1488856363.565575, -1.887451, +0.415039, -0.040405, +75.204979, -29.014059, -57.325153 
1488856363.569520, 1488856363.569520, -1.282959, +0.113892, -0.268921, +75.204979, -23.398825, -68.921837 
1488856363.573476, 1488856363.573476, -1.282959, +0.113892, -0.268921, +14.719141, -23.398825, -68.921837 
1488856363.577422, 1488856363.577422, -1.282959, +0.113892, -0.268921, +14.719141, -23.398825, -68.921837 
1488856363.581373, 1488856363.581373, -1.282959, +0.113892, -0.268921, -9.084570, -15.922018, -70.005211 
1488856363.585327, 1488856363.585327, -1.282959, +0.113892, -0.268921, -9.084570, -15.922018, -70.005211 
1488856363.589272, 1488856363.589272, -1.021851, -0.302124, -0.249878, -9.084570, -15.922018, -70.005211 
1488856363.593258, 1488856363.593258, -1.021851, -0.302124, -0.249878, +1.489770, -12.610861, -57.584553 
1488856363.597204, 1488856363.597204, -1.021851, -0.302124, -0.249878, +1.489770, -12.610861, -57.584553 
1488856363.601142, 1488856363.601142, -1.021851, -0.302124, -0.249878, +1.489770, -12.610861, -57.584553 
1488856363.605095, 1488856363.605095, -1.021851, -0.302124, -0.249878, +23.126734, -12.916037, -37.870197 
1488856363.609035, 1488856363.609035, -1.002930, -0.543579, -0.643677, +23.126734, -12.916037, -37.870197 
1488856363.612988, 1488856363.612988, -1.002930, -0.543579, -0.643677, +23.126734, -12.839743, -19.086630 
1488856363.616937, 1488856363.616937, -1.002930, -0.543579, -0.643677, +47.784935, -12.839743, -19.086630 
1488856363.620988, 1488856363.620988, -1.002930, -0.543579, -0.643677, +47.784935, -12.839743, -19.086630 
1488856363.625057, 1488856363.625057, -1.002930, -0.543579, -0.643677, +72.137962, -13.480612, -5.994588 
1488856363.629010, 1488856363.629010, -1.173828, -0.280762, -0.620850, +72.137962, -13.480612, -5.994588 
1488856363.632951, 1488856363.632951, -1.173828, -0.280762, -0.620850, +72.137962, -13.480612, -5.994588 
1488856363.636947, 1488856363.636947, -1.173828, -0.280762, -0.620850, +85.580956, -17.142721, +0.627726 
1488856363.640893, 1488856363.640893, -1.173828, -0.280762, -0.620850, +85.580956, -17.142721, +0.627726 
1488856363.644879, 1488856363.644879, -1.173828, -0.280762, -0.620850, +85.580956, -17.142721, +0.627726 
1488856363.648823, 1488856363.648823, -1.018555, -0.006348, -0.481934, +84.100853, -20.270773, +1.329630 
1488856363.652766, 1488856363.652766, -1.018555, -0.006348, -0.481934, +84.100853, -20.270773, +1.329630 
1488856363.656536, 1488856363.656536, -1.018555, -0.006348, -0.481934, +84.100853, -20.270773, -2.683431 
1488856363.660286, 1488856363.660286, -1.018555, -0.006348, -0.481934, +71.664940, -20.835348, -2.683431 
1488856363.664088, 1488856363.664088, -1.018555, -0.006348, -0.481934, +71.664940, -20.835348, -2.683431 
1488856363.667832, 1488856363.667832, -1.024414, +0.343262, -0.443604, +53.629051, -19.782492, -7.047445 
1488856363.671568, 1488856363.671568, -1.024414, +0.343262, -0.443604, +53.629051, -19.782492, -7.047445 
1488856363.675504, 1488856363.675504, -1.024414, +0.343262, -0.443604, +53.629051, -19.782492, -7.047445 
1488856363.679241, 1488856363.679241, -1.024414, +0.343262, -0.443604, +45.908104, -21.308371, -4.911214 
1488856363.683110, 1488856363.683110, -1.024414, +0.343262, -0.443604, +45.908104, -21.308371, -4.911214 
1488856363.686862, 1488856363.686862, -1.197632, -0.219971, -0.382812, +45.908104, -21.308371, -4.911214 
1488856363.690604, 1488856363.690604, -1.197632, -0.219971, -0.382812, +47.083031, -22.132345, -4.117757 
1488856363.694350, 1488856363.694350, -1.197632, -0.219971, -0.382812, +47.083031, -22.132345, -4.117757 
1488856363.698092, 1488856363.698092, -1.197632, -0.219971, -0.382812, +47.083031, -22.132345, -4.117757 
1488856363.701834, 1488856363.701834, -1.197632, -0.219971, -0.382812, +61.838280, -27.793356, -6.269247 
1488856363.705596, 1488856363.705596, -1.197632, -0.049194, -0.374878, +61.838280, -27.793356, -6.269247 
1488856363.709339, 1488856363.709339, -1.132202, -0.049194, -0.374878, +61.838280, -27.793356, -6.269247 
1488856363.713532, 1488856363.713532, -1.132202, -0.049194, -0.374878, +70.886742, -34.812401, -8.176596 
1488856363.717415, 1488856363.717415, -1.132202, -0.049194, -0.374878, +70.886742, -34.812401, -8.176596 
1488856363.721858, 1488856363.721858, -1.132202, -0.049194, -0.374878, +70.886742, -37.467430, -13.715536 
1488856363.725815, 1488856363.725815, -0.979614, +0.182739, -0.423462, +68.735252, -37.467430, -13.715536 
1488856363.729764, 1488856363.729764, -0.979614, +0.182739, -0.423462, +68.735252, -37.467430, -13.715536 
1488856363.733717, 1488856363.733717, -0.979614, +0.182739, -0.423462, +62.982689, -37.421654, -19.147665 
1488856363.737658, 1488856363.737658, -0.979614, +0.182739, -0.423462, +62.982689, -37.421654, -19.147665 
1488856363.741603, 1488856363.741603, -0.979614, +0.182739, -0.423462, +62.982689, -37.421654, -19.147665 
1488856363.745561, 1488856363.745561, -0.973755, +0.038452, -0.391357, +57.565819, -40.320824, -23.816854 
1488856363.749517, 1488856363.749517, -0.973755, +0.038452, -0.391357, +57.565819, -40.320824, -23.816854 
1488856363.753456, 1488856363.753456, -0.973755, +0.038452, -0.391357, +57.565819, -40.320824, -23.816854 
1488856363.757212, 1488856363.757212, -0.973755, +0.038452, -0.391357, +54.239403, -43.204735, -30.057699 
1488856363.760953, 1488856363.760953, -0.973755, +0.038452, -0.391357, +54.239403, -43.204735, -30.057699 
1488856363.764761, 1488856363.764761, -0.973755, +0.038452, -0.427368, +54.239403, -43.204735, -30.057699 
1488856363.768512, 1488856363.768512, -1.038452, +0.040405, -0.427368, +51.813255, -46.515892, -37.610798 
1488856363.772258, 1488856363.772258, -1.038452, +0.040405, -0.427368, +51.813255, -46.515892, -37.610798 
1488856363.776247, 1488856363.776247, -1.038452, +0.040405, -0.427368, +51.813255, -50.422142, -43.638020 
1488856363.780197, 1488856363.780197, -1.038452, +0.040405, -0.427368, +49.661766, -49.689720, -43.638020 
1488856363.784160, 1488856363.784160, -1.038452, +0.040405, -0.333618, +49.661766, -49.689720, -43.638020 
1488856363.788103, 1488856363.788103, -1.159546, -0.013550, -0.312988, +49.005638, -53.000877, -48.414021 
1488856363.792052, 1488856363.792052, -1.159546, -0.013550, -0.312988, +49.005638, -53.000877, -48.414021 
1488856363.796013, 1488856363.796013, -1.159546, -0.013550, -0.312988, +49.005638, -53.000877, -48.414021 
1488856363.799958, 1488856363.799958, -1.159546, -0.013550, -0.312988, +43.115746, -57.303856, -54.273396 
1488856363.803879, 1488856363.803879, -1.159546, -0.013550, -0.312988, +43.115746, -57.303856, -54.273396 
1488856363.807626, 1488856363.807626, -1.203491, +0.134399, -0.441284, +43.115746, -57.303856, -54.273396 
1488856363.811376, 1488856363.811376, -1.203491, +0.134399, -0.441284, +39.667259, -59.806297, -60.987263 
1488856363.815412, 1488856363.815412, -1.203491, +0.134399, -0.441284, +39.667259, -59.806297, -60.987263 
1488856363.819875, 1488856363.819875, -1.203491, +0.134399, -0.441284, +39.667259, -63.712547, -68.494591 
1488856363.823686, 1488856363.823686, -1.203491, +0.134399, -0.441284, +36.554466, -60.965965, -68.494591 
1488856363.827434, 1488856363.827434, -1.322998, +0.169800, -0.345947, +36.554466, -60.965965, -68.494591 
1488856363.831180, 1488856363.831180, -1.322998, +0.169800, -0.345947, +37.775169, -67.237328, -77.298912 
1488856363.834989, 1488856363.834989, -1.322998, +0.169800, -0.345947, +37.775169, -67.237328, -77.298912 
1488856363.838730, 1488856363.838730, -1.322998, +0.169800, -0.345947, +37.775169, -67.237328, -77.298912 
1488856363.842470, 1488856363.842470, -1.322998, +0.169800, -0.345947, +37.759911, -75.293968, -86.454185 
1488856363.846224, 1488856363.846224, -1.408569, +0.252319, -0.438965, +37.759911, -75.293968, -86.454185 
1488856363.849968, 1488856363.849968, -1.408569, +0.252319, -0.438965, +37.759911, -75.293968, -86.454185 
1488856363.853721, 1488856363.853721, -1.408569, +0.252319, -0.438965, +37.759911, -83.518456, -98.340782 
1488856363.857464, 1488856363.857464, -1.408569, +0.252319, -0.438965, +37.759911, -83.518456, -98.340782 
1488856363.861207, 1488856363.861207, -1.408569, +0.252319, -0.438965, +37.759911, -83.518456, -98.340782 
1488856363.865246, 1488856363.865246, -1.552124, +0.340942, -0.565674, +36.584984, -88.721703, -109.296593 
1488856363.869004, 1488856363.869004, -1.552124, +0.340942, -0.565674, +36.584984, -88.721703, -109.296593 
1488856363.872754, 1488856363.872754, -1.552124, +0.340942, -0.565674, +36.584984, -88.721703, -109.296593 
1488856363.876825, 1488856363.876825, -1.552124, +0.340942, -0.565674, +39.072166, -92.124413, -117.231163 
1488856363.880773, 1488856363.880773, -1.552124, +0.340942, -0.565674, +39.072166, -92.124413, -117.231163 
1488856363.884735, 1488856363.884735, -1.901611, +0.278442, -0.592896, +39.072166, -92.124413, -122.953209 
1488856363.888689, 1488856363.888689, -1.901611, +0.278442, -0.592896, +47.647606, -96.290062, -122.953209 
1488856363.892632, 1488856363.892632, -1.901611, +0.278442, -0.592896, +47.647606, -96.290062, -122.953209 
1488856363.896590, 1488856363.896590, -1.901611, +0.278442, -0.592896, +63.409935, -101.249168, -127.378258 
1488856363.900536, 1488856363.900536, -1.901611, +0.278442, -0.592896, +63.409935, -101.249168, -127.378258 
1488856363.904418, 1488856363.904418, -1.949951, +0.425293, -0.831543, +63.409935, -101.249168, -127.378258 
1488856363.908171, 1488856363.908171, -1.949951, +0.425293, -0.831543, +81.796776, -104.072044, -130.674149 
1488856363.911928, 1488856363.911928, -1.949951, +0.425293, -0.831543, +81.796776, -104.072044, -130.674149 
1488856363.915704, 1488856363.915704, -1.949951, +0.425293, -0.831543, +81.796776, -104.072044, -130.674149 
1488856363.919452, 1488856363.919452, -1.949951, +0.425293, -0.831543, +104.868065, -105.674217, -133.161331 
1488856363.923279, 1488856363.923279, -1.949951, +0.425293, -1.218506, +104.868065, -105.674217, -133.161331 
1488856363.927222, 1488856363.927222, -2.119873, +1.029907, -1.218506, +104.868065, -105.674217, -133.161331 
1488856363.931330, 1488856363.931330, -2.119873, +1.029907, -1.218506, +129.953522, -110.389183, -130.491043 
1488856363.935703, 1488856363.935703, -2.119873, +1.029907, -1.218506, +129.953522, -110.389183, -130.491043 
1488856363.939652, 1488856363.939652, -2.119873, +1.029907, -1.218506, +129.953522, -120.292137, -123.441490 
1488856363.943600, 1488856363.943600, -2.119873, +1.022949, -1.117188, +159.677643, -120.292137, -123.441490 
1488856363.947541, 1488856363.947541, -2.500488, +1.022949, -1.117188, +159.677643, -120.292137, -123.441490 
1488856363.951485, 1488856363.951485, -2.500488, +1.022949, -1.117188, +168.024200, -120.459984, -124.204430 
1488856363.955309, 1488856363.955309, -2.500488, +1.022949, -1.117188, +168.024200, -120.459984, -124.204430 
1488856363.959060, 1488856363.959060, -2.500488, +1.022949, -1.117188, +168.024200, -120.459984, -124.204430 
1488856363.962812, 1488856363.962812, -2.500488, +1.022949, -1.554688, +138.528961, -125.342796, -134.259964 
1488856363.966564, 1488856363.966564, -2.510620, +1.088135, -1.553833, +138.528961, -125.342796, -134.259964 
1488856363.970313, 1488856363.970313, -2.510620, +1.088135, -1.553833, +138.528961, -125.342796, -134.259964 
1488856363.974076, 1488856363.974076, -2.510620, +1.088135, -1.553833, +111.642967, -125.968407, -134.809280 
1488856363.977827, 1488856363.977827, -2.510620, +1.088135, -1.553833, +111.642967, -125.968407, -134.809280 
1488856363.981575, 1488856363.981575, -2.510620, +1.088135, -1.553833, +111.642967, -125.968407, -134.809280 
1488856363.985494, 1488856363.985494, -2.190430, +0.401367, -1.435181, +105.081688, -126.685570, -128.003860 
1488856363.989245, 1488856363.989245, -2.190430, +0.401367, -1.435181, +105.081688, -126.685570, -128.003860 
1488856363.993116, 1488856363.993116, -2.190430, +0.401367, -1.435181, +105.081688, -126.685570, -128.003860 
1488856363.997058, 1488856363.997058, -2.190430, +0.401367, -1.435181, +63.379417, -131.217422, -121.732506 
1488856364.001008, 1488856364.001008, -2.190430, +0.401367, -1.435181, +63.379417, -131.217422, -121.732506 
1488856364.004881, 1488856364.004881, -1.316895, +0.825195, -1.023071, +63.379417, -127.311180, -113.721642 
1488856364.008741, 1488856364.008741, -1.316895, +0.825195, -1.023071, +8.325708, -128.577652, -113.721642 
1488856364.012482, 1488856364.012482, -1.316895, +0.825195, -1.023071, +8.325708, -128.577652, -113.721642 
1488856364.016410, 1488856364.016410, -1.316895, +0.825195, -1.023071, -40.822853, -123.618553, -111.875328 
1488856364.020359, 1488856364.020359, -1.316895, +0.825195, -1.023071, -40.822853, -123.618553, -111.875328 
1488856364.024319, 1488856364.024319, -0.593140, -1.110474, -0.258301, -40.822853, -123.618553, -111.875328 
1488856364.028271, 1488856364.028271, -0.593140, -1.110474, -0.258301, -94.564308, -75.263451, -104.337486 
1488856364.032215, 1488856364.032215, -0.593140, -1.110474, -0.258301, -94.564308, -75.263451, -104.337486 
1488856364.036166, 1488856364.036166, -0.593140, -1.110474, -0.258301, -94.564308, -75.263451, -104.337486 
1488856364.040113, 1488856364.040113, -0.593140, -1.110474, -0.258301, -66.259254, -10.917135, -47.422199 
1488856364.044100, 1488856364.044100, -1.038208, -0.248779, -0.281738, -66.259254, -10.917135, -47.422199 
1488856364.048040, 1488856364.048040, -1.038208, -0.248779, -0.281738, -66.259254, -10.917135, +15.764444 
1488856364.052227, 1488856364.052227, -1.038208, -0.248779, -0.281738, -24.068701, -24.421164, +15.764444 
1488856364.056166, 1488856364.056166, -1.038208, -0.248779, -0.281738, -24.068701, -24.421164, +15.764444 
1488856364.059912, 1488856364.059912, -1.038208, -0.248779, -0.281738, -12.395727, -40.091942, +42.375774 
1488856364.063737, 1488856364.063737, -0.058838, +0.286987, -0.692383, -12.395727, -40.091942, +42.375774 
1488856364.067685, 1488856364.067685, -0.058838, +0.286987, -0.692383, -12.395727, -40.091942, +42.375774 
1488856364.071632, 1488856364.071632, -0.058838, +0.286987, -0.692383, +3.030908, -31.562277, +66.133705 
1488856364.075589, 1488856364.075589, -0.058838, +0.286987, -0.692383, +3.030908, -31.562277, +66.133705 
1488856364.079536, 1488856364.079536, -0.058838, +0.286987, -0.692383, +3.030908, -31.562277, +66.133705 
1488856364.083481, 1488856364.083481, +0.358276, +0.805054, -0.061401, +12.918604, -10.611959, +96.697060 
1488856364.087234, 1488856364.087234, +0.358276, +0.805054, -0.061401, +12.918604, -10.611959, +96.697060 
1488856364.090980, 1488856364.090980, +0.358276, +0.805054, -0.061401, +12.918604, -10.611959, +96.697060 
1488856364.094734, 1488856364.094734, +0.358276, +0.805054, -0.061401, +2.176416, +17.036966, +131.136154 
1488856364.098477, 1488856364.098477, +0.358276, +0.805054, -0.061401, +2.176416, +17.036966, +131.136154 
1488856364.102224, 1488856364.102224, +0.358276, +0.305054, -0.125366, +2.176416, +17.036966, +131.136154 
1488856364.106095, 1488856364.106095, -0.058960, +0.300415, -0.125366, -35.451759, +45.235207, +159.120773 
1488856364.109845, 1488856364.109845, -0.058960, +0.300415, -0.125366, -35.451759, +45.235207, +159.120773 
1488856364.113784, 1488856364.113784, -0.058960, +0.300415, -0.125366, -35.451759, +68.672707, +176.347946 
1488856364.117728, 1488856364.117728, -0.058960, +0.300415, -0.125366, -59.667458, +68.855812, +176.347946 
1488856364.121675, 1488856364.121675, -0.058960, +0.300415, -0.281616, -59.667458, +68.855812, +176.347946 
1488856364.125601, 1488856364.125601, -0.377075, +0.006470, -0.303711, -62.185158, +89.729836, +189.882492 
1488856364.129357, 1488856364.129357, -0.377075, +0.006470, -0.303711, -62.185158, +89.729836, +189.882492 
1488856364.133201, 1488856364.133201, -0.377075, +0.006470, -0.303711, -62.185158, +89.729836, +189.882492 
1488856364.137099, 1488856364.137099, -0.377075, +0.006470, -0.303711, -50.115456, +104.775002, +205.217575 
1488856364.141661, 1488856364.141661, -0.377075, +0.006470, -0.365723, -50.115456, +104.775002, +205.217575 
1488856364.145519, 1488856364.145519, -0.367554, +0.220093, -0.365723, -50.115456, +104.775002, +205.217575 
1488856364.149262, 1488856364.149262, -0.367554, +0.220093, -0.365723, -36.519875, +115.959694, +223.558640 
1488856364.153025, 1488856364.153025, -0.367554, +0.220093, -0.365723, -36.519875, +115.959694, +223.558640 
1488856364.156881, 1488856364.156881, -0.367554, +0.220093, -0.365723, -36.519875, +115.959694, +239.183640 
1488856364.160629, 1488856364.160629, -0.367554, +0.220093, -0.365723, -29.271948, +131.386337, +239.763474 
1488856364.164429, 1488856364.164429, -0.472412, +0.439331, -0.135742, -29.271948, +131.386337, +239.763474 
1488856364.168169, 1488856364.168169, -0.472412, +0.439331, -0.135742, -29.271948, +131.386337, +251.543259 
1488856364.171910, 1488856364.171910, -0.472412, +0.439331, -0.135742, -34.292091, +146.416245, +251.543259 
1488856364.175670, 1488856364.175670, -0.472412, +0.439331, -0.135742, -34.292091, +146.416245, +251.543259 
1488856364.179411, 1488856364.179411, -0.472412, +0.439331, -0.135742, -34.292091, +159.233627, +256.914337 
1488856364.183326, 1488856364.183326, -0.689575, +0.500366, -0.246704, -42.760719, +159.233627, +256.914337 
1488856364.187076, 1488856364.187076, -0.689575, +0.500366, -0.246704, -42.760719, +159.233627, +256.914337 
1488856364.190819, 1488856364.190819, -0.689575, +0.500366, -0.246704, -59.530128, +172.371445, +258.501251 
1488856364.194723, 1488856364.194723, -0.689575, +0.500366, -0.246704, -59.530128, +172.371445, +258.501251 
1488856364.198472, 1488856364.198472, -0.689575, +0.500366, -0.246704, -59.530128, +172.371445, +258.501251 
1488856364.202216, 1488856364.202216, -0.984253, +0.454590, -0.287964, -80.602516, +186.363754, +261.232574 
1488856364.206148, 1488856364.206148, -0.984253, +0.454590, -0.287964, -80.602516, +186.363754, +261.232574 
1488856364.210100, 1488856364.210100, -0.984253, +0.454590, -0.287964, -80.602516, +186.363754, +261.232574 
1488856364.214089, 1488856364.214089, -0.984253, +0.454590, -0.287964, -99.737038, +199.684677, +265.703400 
1488856364.218040, 1488856364.218040, -0.984253, +0.454590, -0.287964, -99.737038, +199.684677, +265.703400 
1488856364.221988, 1488856364.221988, -1.403076, +0.462891, -0.374634, -99.737038, +199.684677, +265.703400 
1488856364.225949, 1488856364.225949, -1.403076, +0.462891, -0.374634, -116.216530, +207.878647, +272.340973 
1488856364.229899, 1488856364.229899, -1.403076, +0.462891, -0.374634, -116.216530, +207.878647, +272.340973 
1488856364.233892, 1488856364.233892, -1.403076, +0.462891, -0.374634, -131.841522, +208.565292, +280.534943 
1488856364.237835, 1488856364.237835, -1.403076, +0.462891, -0.374634, -129.354340, +208.565292, +280.534943 
1488856364.241781, 1488856364.241781, -1.827393, +0.536865, -0.448975, -129.354340, +208.565292, +280.534943 
1488856364.245716, 1488856364.245716, -1.827393, +0.536865, -0.448975, -138.494354, +206.230698, +292.421539 
1488856364.249714, 1488856364.249714, -1.827393, +0.536865, -0.448975, -138.494354, +206.230698, +292.421539 
1488856364.253749, 1488856364.253749, -1.827393, +0.536865, -0.448975, -138.494354, +206.230698, +292.421539 
1488856364.257696, 1488856364.257696, -1.827393, +0.536865, -0.448975, -153.646332, +203.865585, +303.789337 
1488856364.261645, 1488856364.261645, -2.539551, +0.191895, -0.558716, -153.646332, +203.865585, +303.789337 
1488856364.265608, 1488856364.265608, -2.539551, +0.191895, -0.558716, -153.646332, +203.865585, +315.508087 
1488856364.269562, 1488856364.269562, -2.539551, +0.191895, -0.558716, -171.758514, +197.731552, +312.608917 
1488856364.273521, 1488856364.273521, -2.539551, +0.191895, -0.558716, -171.758514, +197.731552, +312.608917 
1488856364.277468, 1488856364.277468, -2.539551, +0.191895, -0.558716, -171.758514, +184.288559, +319.948395 
1488856364.281419, 1488856364.281419, -3.195801, -0.560669, -0.628296, -171.911102, +184.288559, +319.948395 
1488856364.285265, 1488856364.285265, -3.215820, -0.560669, -0.628296, -171.911102, +184.288559, +319.948395 
1488856364.289011, 1488856364.289011, -3.215820, -0.560669, -0.628296, -153.646332, +165.886459, +320.451935 
1488856364.292760, 1488856364.292760, -3.215820, -0.560669, -0.628296, -153.646332, +165.886459, +320.451935 
1488856364.296572, 1488856364.296572, -3.215820, -0.560669, -0.628296, -153.646332, +165.886459, +320.451935 
1488856364.300321, 1488856364.300321, -3.215820, -0.560669, -0.815796, -130.315643, +139.381943, +303.713043 
1488856364.304287, 1488856364.304287, -2.823730, -1.077515, -0.831665, -130.315643, +139.381943, +303.713043 
1488856364.308034, 1488856364.308034, -2.823730, -1.077515, -0.831665, -130.315643, +139.381943, +303.713043 
1488856364.311773, 1488856364.311773, -2.823730, -1.077515, -0.831665, -117.833961, +126.061012, +272.081573 
1488856364.315815, 1488856364.315815, -2.823730, -1.077515, -0.831665, -117.833961, +126.061012, +272.081573 
1488856364.319762, 1488856364.319762, -2.823730, -1.077515, -0.831665, -117.833961, +126.061012, +272.081573 
1488856364.323723, 1488856364.323723, -2.611572, -2.489868, -0.639282, -91.527809, +144.722519, +233.659958 
1488856364.327673, 1488856364.327673, -2.611572, -2.489868, -0.639282, -91.527809, +144.722519, +233.659958 
1488856364.331618, 1488856364.331618, -2.611572, -2.489868, -0.639282, -91.527809, +135.765610, +168.138718 
1488856364.335677, 1488856364.335677, -2.611572, -2.489868, -0.639282, -66.411842, +135.765610, +168.138718 
1488856364.339926, 1488856364.339926, -2.611572, -2.489868, +1.048218, -66.411842, +135.765610, +168.138718 
1488856364.343723, 1488856364.343723, -2.596558, -3.392456, +1.046875, -12.075293, +81.291725, +100.176064 
1488856364.347466, 1488856364.347466, -2.596558, -3.392456, +1.046875, -12.075293, +81.291725, +100.176064 
1488856364.351212, 1488856364.351212, -2.596558, -3.392456, +1.046875, -12.075293, +81.291725, +100.176064 
1488856364.355002, 1488856364.355002, -2.596558, -3.392456, +1.046875, +31.656397, +17.937235, +30.962198 
1488856364.358742, 1488856364.358742, -2.596558, -3.392456, +1.046875, +31.656397, +17.937235, +30.962198 
1488856364.362473, 1488856364.362473, -2.167969, -2.482178, +1.021118, +31.656397, +17.937235, +30.962198 
1488856364.366299, 1488856364.366299, -2.167969, -2.482178, +1.021118, +21.982325, -31.440207, -49.176960 
1488856364.370041, 1488856364.370041, -2.167969, -2.482178, +1.021118, +21.982325, -31.440207, -49.176960 
1488856364.373838, 1488856364.373838, -2.167969, -2.482178, +1.021118, +21.982325, -31.440207, -49.176960 
1488856364.377583, 1488856364.377583, -2.167969, -2.482178, +1.021118, +12.872828, -73.417137, -126.874718 
1488856364.381323, 1488856364.381323, -1.995117, -1.696289, +0.178101, +12.872828, -73.417137, -126.874718 
1488856364.385152, 1488856364.385152, -1.995117, -1.696289, +0.178101, +12.872828, -73.417137, -126.874718 
1488856364.388904, 1488856364.388904, -1.995117, -1.696289, +0.178101, -9.435522, -90.659569, -187.558914 
1488856364.392648, 1488856364.392648, -1.995117, -1.696289, +0.178101, -9.435522, -90.659569, -187.558914 
1488856364.396586, 1488856364.396586, -1.995117, -1.696289, +0.178101, -9.435522, -90.659569, -218.808914 
1488856364.400328, 1488856364.400328, -1.995117, +0.497559, -1.408447, -36.931862, -90.247581, -215.925003 
1488856364.404145, 1488856364.404145, -1.749634, +0.497559, -1.408447, -36.931862, -90.247581, -215.925003 
1488856364.408063, 1488856364.408063, -1.749634, +0.497559, -1.408447, -60.369362, -85.822533, -203.092361 
1488856364.411986, 1488856364.411986, -1.749634, +0.497559, -1.408447, -61.605324, -85.822533, -203.092361 
1488856364.415919, 1488856364.415919, -1.749634, +0.497559, -1.408447, -61.605324, -85.822533, -203.092361 
1488856364.419843, 1488856364.419843, -1.749634, +3.153809, -0.786133, -35.833229, -65.329979, -147.153641 
1488856364.423771, 1488856364.423771, -1.600952, +3.148193, -0.786133, -35.833229, -65.329979, -147.153641 
1488856364.427658, 1488856364.427658, -1.600952, +3.148193, -0.786133, -35.833229, -65.329979, -147.153641 
1488856364.431543, 1488856364.431543, -1.600952, +3.148193, -0.786133, +130.060333, -38.550804, -90.284142 
1488856364.435605, 1488856364.435605, -1.600952, +3.148193, -0.786133, +130.060333, -38.550804, -90.284142 
1488856364.439553, 1488856364.439553, -1.600952, +3.148193, +1.439453, +130.060333, -38.550804, -90.284142 
1488856364.443486, 1488856364.443486, -3.232544, -1.919189, +1.439453, +47.159325, -41.678856, -154.004837 
1488856364.447236, 1488856364.447236, -3.232544, -1.919189, +1.439453, +47.159325, -41.678856, -154.004837 
1488856364.451277, 1488856364.451277, -3.232544, -1.919189, +1.439453, +47.159325, -53.397606, -223.722244 
1488856364.455266, 1488856364.455266, -3.232544, -1.919189, +1.439453, -75.963844, -52.833031, -223.722244 
1488856364.459015, 1488856364.459015, -3.232544, -1.919189, -0.779297, -75.963844, -52.833031, -223.722244 
1488856364.462760, 1488856364.462760, -1.613647, -0.938843, -0.750488, -6.963599, -32.340477, -188.871170 
1488856364.466860, 1488856364.466860, -1.613647, -0.938843, -0.750488, -6.963599, -32.340477, -188.871170 
1488856364.470800, 1488856364.470800, -1.613647, -0.938843, -0.750488, -6.963599, -32.340477, -188.871170 
1488856364.474745, 1488856364.474745, -1.613647, -0.938843, -0.750488, +40.506493, -28.861471, -165.677811 
1488856364.478685, 1488856364.478685, -1.613647, -0.938843, -0.750488, +40.506493, -28.861471, -165.677811 
1488856364.482690, 1488856364.482690, -1.328247, -0.829468, -0.427368, +40.506493, -28.861471, -165.677811 
1488856364.486455, 1488856364.486455, -1.328247, -0.829468, -0.427368, +55.383812, -16.028830, -152.784134 
1488856364.490217, 1488856364.490217, -1.328247, -0.829468, -0.427368, +55.383812, -16.028830, -152.784134 
1488856364.494042, 1488856364.494042, -1.328247, -0.829468, -0.427368, +55.383812, -16.028830, -152.784134 
1488856364.497784, 1488856364.497784, -1.328247, -0.829468, -0.427368, +68.033348, -26.923605, -136.960770 
1488856364.501534, 1488856364.501534, -0.492188, -0.293091, -0.404663, +68.033348, -26.923605, -136.960770 
1488856364.505313, 1488856364.505313, -0.492188, -0.293091, -0.404663, +68.033348, -26.923605, -117.429527 
1488856364.509070, 1488856364.509070, -0.492188, -0.293091, -0.404663, +85.062157, -38.794945, -115.339073 
1488856364.512826, 1488856364.512826, -0.492188, -0.293091, -0.404663, +85.062157, -38.794945, -115.339073 
1488856364.516867, 1488856364.516867, -0.492188, -0.293091, -0.404663, +85.062157, -32.035301, -89.521202 
1488856364.521142, 1488856364.521142, -1.246826, -0.505249, -0.276489, +95.575462, -32.035301, -89.521202 
1488856364.525115, 1488856364.525115, -1.246826, -0.505249, -0.276489, +95.575462, -32.035301, -89.521202 
1488856364.529055, 1488856364.529055, -1.246826, -0.505249, -0.276489, +99.390160, -24.939962, -67.594322 
1488856364.533009, 1488856364.533009, -1.246826, -0.505249, -0.276489, +99.390160, -24.939962, -67.594322 
1488856364.536956, 1488856364.536956, -1.246826, -0.505249, -0.276489, +99.390160, -24.939962, -67.594322 
1488856364.540901, 1488856364.540901, -1.609253, +0.114258, -0.375854, +94.522606, -31.806417, -54.105549 
1488856364.544798, 1488856364.544798, -1.609253, +0.114258, -0.375854, +94.522606, -31.806417, -54.105549 
1488856364.548554, 1488856364.548554, -1.609253, +0.114258, -0.375854, +94.522606, -31.806417, -54.105549 
1488856364.552302, 1488856364.552302, -1.609253, +0.114258, -0.375854, +71.298729, -33.683250, -54.731159 
1488856364.556117, 1488856364.556117, -1.609253, +0.114258, -0.375854, +71.298729, -33.683250, -54.731159 
1488856364.559864, 1488856364.559864, -1.093262, +0.222778, -0.301880, +71.298729, -33.683250, -58.637409 
1488856364.563778, 1488856364.563778, -1.093262, +0.222778, -0.301880, +34.982811, -27.991720, -57.691364 
1488856364.567532, 1488856364.567532, -1.093262, +0.222778, -0.301880, +34.982811, -27.991720, -57.691364 
1488856364.571519, 1488856364.571519, -1.093262, +0.222778, -0.301880, +15.451563, -24.329611, -57.248859 
1488856364.575593, 1488856364.575593, -1.093262, +0.222778, -0.301880, +13.803614, -24.329611, -57.248859 
1488856364.579542, 1488856364.579542, -0.970337, -0.123169, -0.281372, +13.803614, -24.329611, -57.248859 
1488856364.583505, 1488856364.583505, -0.970337, -0.123169, -0.281372, +9.149683, -20.179220, -50.504475 
1488856364.587458, 1488856364.587458, -0.970337, -0.123169, -0.281372, +9.149683, -20.179220, -50.504475 
1488856364.591399, 1488856364.591399, -0.970337, -0.123169, -0.281372, +9.149683, -20.179220, -50.504475 
1488856364.595356, 1488856364.595356, -0.970337, -0.123169, -0.281372, +19.479883, -18.577047, -37.549763 
1488856364.599416, 1488856364.599416, -1.090210, -0.415039, -0.471069, +19.479883, -18.577047, -37.549763 
1488856364.603371, 1488856364.603371, -1.090210, -0.415039, -0.471069, +19.479883, -18.577047, -25.831015 
1488856364.607114, 1488856364.607114, -1.090210, -0.415039, -0.471069, +37.866722, -15.815207, -24.183065 
1488856364.610864, 1488856364.610864, -1.090210, -0.415039, -0.471069, +37.866722, -15.815207, -24.183065 
1488856364.614661, 1488856364.614661, -1.090210, -0.415039, -0.471069, +37.866722, -15.815207, -13.654501 
1488856364.618405, 1488856364.618405, -1.090210, -0.196289, -0.334473, +58.176170, -16.135641, -13.654501 
1488856364.622156, 1488856364.622156, -1.192139, -0.216553, -0.334473, +58.176170, -16.135641, -13.654501 
1488856364.626080, 1488856364.626080, -1.192139, -0.216553, -0.334473, +69.894920, -17.997213, -6.498128 
1488856364.629835, 1488856364.629835, -1.192139, -0.216553, -0.334473, +69.864403, -17.997213, -6.498128 
1488856364.633621, 1488856364.633621, -1.192139, -0.216553, -0.334473, +69.864403, -17.997213, -6.498128 
1488856364.637573, 1488856364.637573, -1.192139, -0.216553, -0.303223, +73.938499, -18.500753, -5.475790 
1488856364.641519, 1488856364.641519, -1.104736, +0.103638, -0.306030, +73.938499, -18.500753, -5.475790 
1488856364.645631, 1488856364.645631, -1.104736, +0.103638, -0.306030, +73.938499, -18.500753, -5.475790 
1488856364.649386, 1488856364.649386, -1.104736, +0.103638, -0.306030, +70.001732, -18.622824, -5.765707 
1488856364.653154, 1488856364.653154, -1.104736, +0.103638, -0.306030, +70.001732, -18.622824, -5.765707 
1488856364.657050, 1488856364.657050, -1.104736, +0.103638, -0.306030, +70.001732, -18.622824, -5.765707 
1488856364.661465, 1488856364.661465, -1.168701, +0.036743, -0.298218, +62.097679, -19.050070, -5.277425 
1488856364.665245, 1488856364.665245, -1.168701, +0.036743, -0.298218, +62.097679, -19.050070, -5.277425 
1488856364.668981, 1488856364.668981, -1.168701, +0.036743, -0.298218, +62.097679, -19.050070, -6.818563 
1488856364.672718, 1488856364.672718, -1.168701, +0.036743, -0.298218, +57.321678, -20.942160, -6.818563 
1488856364.676504, 1488856364.676504, -1.168701, +0.036743, -0.298218, +57.321678, -20.942160, -6.818563 
1488856364.680241, 1488856364.680241, -1.185547, -0.037964, -0.322266, +57.321678, -28.144308, -9.610922 
1488856364.684039, 1488856364.684039, -1.185547, -0.037964, -0.322266, +56.863914, -28.144308, -9.610922 
1488856364.687779, 1488856364.687779, -1.185547, -0.037964, -0.322266, +56.863914, -28.144308, -9.610922 
1488856364.691522, 1488856364.691522, -1.185547, -0.037964, -0.322266, +58.740746, -34.034203, -11.091024 
1488856364.695274, 1488856364.695274, -1.185547, -0.037964, -0.322266, +58.740746, -34.034203, -11.091024 
1488856364.699015, 1488856364.699015, -0.944946, -0.026245, -0.555542, +58.740746, -34.034203, -11.091024 
1488856364.702755, 1488856364.702755, -0.944946, -0.026245, -0.555542, +61.212669, -36.155174, -13.303549 
1488856364.706674, 1488856364.706674, -0.944946, -0.026245, -0.555542, +61.212669, -36.155174, -13.303549 
1488856364.710428, 1488856364.710428, -0.944946, -0.026245, -0.555542, +61.212669, -36.155174, -13.303549 
1488856364.714393, 1488856364.714393, -0.944946, -0.026245, -0.555542, +57.642113, -34.156273, -18.110067 
1488856364.718349, 1488856364.718349, -0.948486, +0.105713, -0.525024, +57.642113, -34.156273, -18.110067 
1488856364.722293, 1488856364.722293, -0.948486, +0.105713, -0.525024, +57.642113, -34.156273, -18.110067 
1488856364.726241, 1488856364.726241, -0.948486, +0.105713, -0.525024, +54.575096, -36.918114, -23.587973 
1488856364.730188, 1488856364.730188, -0.948486, +0.105713, -0.525024, +54.575096, -36.918114, -23.587973 
1488856364.734098, 1488856364.734098, -0.948486, +0.105713, -0.525024, +54.575096, -36.918114, -27.494223 
1488856364.737840, 1488856364.737840, -0.885986, +0.047485, -0.517212, +51.294456, -37.772606, -27.875692 
1488856364.741589, 1488856364.741589, -0.900391, +0.047485, -0.517212, +51.294456, -37.772606, -27.875692 
1488856364.745621, 1488856364.745621, -0.900391, +0.047485, -0.517212, +51.294456, -39.313744, -35.199909 
1488856364.749573, 1488856364.749573, -0.900391, +0.047485, -0.517212, +47.876488, -39.313744, -35.199909 
1488856364.753529, 1488856364.753529, -0.900391, +0.047485, -0.517212, +47.876488, -39.313744, -35.199909 
1488856364.757473, 1488856364.757473, -0.900391, +0.078247, -0.448608, +40.140282, -41.877220, -44.202595 
1488856364.761417, 1488856364.761417, -0.991699, +0.078247, -0.448608, +40.140282, -41.877220, -44.202595 
1488856364.765380, 1488856364.765380, -0.991699, +0.078247, -0.448608, +40.140282, -41.877220, -44.202595 
1488856364.769457, 1488856364.769457, -0.991699, +0.078247, -0.448608, +34.418236, -44.486473, -52.472858 
1488856364.773706, 1488856364.773706, -0.991699, +0.078247, -0.448608, +34.418236, -44.486473, -52.472858 
1488856364.777656, 1488856364.777656, -1.223145, -0.065918, -0.238403, +34.418236, -44.486473, -55.951862 
1488856364.781603, 1488856364.781603, -1.223145, -0.065918, -0.238403, +35.623680, -48.179100, -55.951862 
1488856364.785433, 1488856364.785433, -1.223145, -0.065918, -0.238403, +35.623680, -48.179100, -55.951862 
1488856364.789186, 1488856364.789186, -1.223145, -0.065918, -0.238403, +35.623680, -51.230858, -58.118610 
1488856364.792934, 1488856364.792934, -1.223145, -0.065918, -0.238403, +38.965355, -51.230858, -58.118610 
1488856364.796931, 1488856364.796931, -1.223145, -0.003418, -0.173462, +38.965355, -51.230858, -58.118610 
1488856364.800879, 1488856364.800879, -1.401855, -0.004028, -0.173462, +46.503197, -54.770897, -59.552937 
1488856364.804743, 1488856364.804743, -1.401855, -0.004028, -0.173462, +46.503197, -54.770897, -59.552937 
1488856364.808493, 1488856364.808493, -1.401855, -0.004028, -0.173462, +46.503197, -54.770897, -59.552937 
1488856364.812245, 1488856364.812245, -1.401855, -0.004028, -0.173462, +46.548973, -57.425926, -62.223225 
1488856364.816000, 1488856364.816000, -1.401855, -0.004028, -0.173462, +46.548973, -57.425926, -62.223225 
1488856364.819747, 1488856364.819747, -1.498657, +0.220215, -0.135376, +46.548973, -57.425926, -62.223225 
1488856364.823611, 1488856364.823611, -1.498657, +0.220215, -0.135376, +38.614403, -64.551781, -69.089684 
1488856364.827365, 1488856364.827365, -1.498657, +0.220215, -0.135376, +38.614403, -64.551781, -69.089684 
1488856364.831109, 1488856364.831109, -1.498657, +0.220215, -0.135376, +38.614403, -64.551781, -69.089684 
1488856364.835042, 1488856364.835042, -1.498657, +0.220215, -0.135376, +36.035667, -71.448753, -77.344688 
1488856364.838983, 1488856364.838983, -1.583740, +0.285400, -0.377197, +36.035667, -71.448753, -77.344688 
1488856364.842926, 1488856364.842926, -1.583740, +0.285400, -0.377197, +36.035667, -71.448753, -85.157188 
1488856364.846908, 1488856364.846908, -1.583740, +0.285400, -0.377197, +34.387718, -76.529930, -85.553917 
1488856364.850856, 1488856364.850856, -1.583740, +0.285400, -0.377197, +34.387718, -76.529930, -85.553917 
1488856364.854808, 1488856364.854808, -1.583740, +0.285400, -0.377197, +34.128319, -82.190941, -94.571861 
1488856364.858750, 1488856364.858750, -1.727295, +0.378418, -0.464844, +34.128319, -82.190941, -94.571861 
1488856364.862694, 1488856364.862694, -1.727295, +0.378418, -0.464844, +34.128319, -82.190941, -94.571861 
1488856364.866639, 1488856364.866639, -1.727295, +0.378418, -0.464844, +34.326683, -87.745140, -104.169640 
1488856364.870586, 1488856364.870586, -1.727295, +0.378418, -0.464844, +34.326683, -87.745140, -104.169640 
1488856364.874541, 1488856364.874541, -1.727295, +0.378418, -0.464844, +34.326683, -87.745140, -104.169640 
1488856364.878487, 1488856364.878487, -1.908203, +0.588013, -0.629761, +39.621483, -95.496605, -112.943443 
1488856364.882433, 1488856364.882433, -1.908203, +0.588013, -0.629761, +39.621483, -95.496605, -112.943443 
1488856364.886391, 1488856364.886391, -1.908203, +0.588013, -0.629761, +39.621483, -95.496605, -120.755943 
1488856364.890415, 1488856364.890415, -1.908203, +0.588013, -0.629761, +47.342430, -102.714012, -119.931969 
1488856364.894735, 1488856364.894735, -1.908203, +0.588013, -0.629761, +47.342430, -102.714012, -119.931969 
1488856364.898682, 1488856364.898682, -2.027832, +0.758667, -0.954346, +57.855736, -108.283470, -126.752647 
1488856364.902630, 1488856364.902630, -2.027832, +0.758667, -0.954346, +57.855736, -108.283470, -126.752647 
1488856364.906586, 1488856364.906586, -2.027832, +0.758667, -0.954346, +57.855736, -108.283470, -126.752647 
1488856364.910532, 1488856364.910532, -2.027832, +0.758667, -0.954346, +72.046410, -113.196800, -132.077957 
1488856364.914486, 1488856364.914486, -2.027832, +0.758667, -0.954346, +72.046410, -113.196800, -132.077957 
1488856364.918430, 1488856364.918430, -2.041138, +1.329834, -1.333862, +72.046410, -113.196800, -132.077957 
1488856364.922367, 1488856364.922367, -2.041138, +1.329834, -1.333862, +86.099754, -118.369530, -129.911209 
1488856364.926159, 1488856364.926159, -2.041138, +1.329834, -1.333862, +86.099754, -118.369530, -129.911209 
1488856364.929903, 1488856364.929903, -2.041138, +1.329834, -1.333862, +86.099754, -118.369530, -129.911209 
1488856364.933710, 1488856364.933710, -2.041138, +1.329834, -1.333862, +103.571068, -118.888329, -129.361893 
1488856364.937460, 1488856364.937460, -2.454346, +0.660156, -1.326782, +103.571068, -118.888329, -129.361893 
1488856364.941203, 1488856364.941203, -2.454346, +0.660156, -1.326782, +103.571068, -118.888329, -138.486649 
1488856364.945128, 1488856364.945128, -2.454346, +0.660156, -1.326782, +110.529076, -112.327049, -138.486649 
1488856364.948876, 1488856364.948876, -2.454346, +0.660156, -1.326782, +110.529076, -112.327049, -138.486649 
1488856364.952626, 1488856364.952626, -2.454346, +0.660156, -1.326782, +98.810326, -113.166283, -142.011429 
1488856364.956642, 1488856364.956642, -2.363403, +0.950439, -1.649048, +101.678978, -113.166283, -142.011429 
1488856364.960547, 1488856364.960547, -2.363403, +0.950439, -1.649048, +101.678978, -113.166283, -142.011429 
1488856364.964475, 1488856364.964475, -2.363403, +0.950439, -1.649048, +98.520409, -118.522118, -129.819656 
1488856364.969159, 1488856364.969159, -2.363403, +0.950439, -1.649048, +98.520409, -118.522118, -129.819656 
1488856364.972912, 1488856364.972912, -2.363403, +0.950439, -1.649048, +98.520409, -118.522118, -129.819656 
1488856364.976729, 1488856364.976729, -1.718018, +0.645142, -1.432739, +84.894310, -121.283958, -114.850792 
1488856364.980480, 1488856364.980480, -1.718018, +0.645142, -1.432739, +84.894310, -121.283958, -114.850792 
1488856364.984276, 1488856364.984276, -1.718018, +0.645142, -1.432739, +84.894310, -121.283958, -114.850792 
1488856364.988014, 1488856364.988014, -1.718018, +0.645142, -1.432739, +33.228050, -120.749901, -115.583214 
1488856364.991756, 1488856364.991756, -1.718018, +0.645142, -1.432739, +33.228050, -120.749901, -115.583214 
1488856364.995540, 1488856364.995540, -1.718018, -0.253906, -0.767334, +33.228050, -120.749901, -125.150475 
1488856364.999284, 1488856364.999284, -1.029541, -0.253906, -0.767334, -15.020239, -114.112328, -125.150475 
1488856365.003020, 1488856365.003020, -1.029541, -0.253906, -0.767334, -15.020239, -114.112328, -125.150475 
1488856365.006779, 1488856365.006779, -1.029541, -0.253906, -0.767334, -15.020239, -86.768578, -122.846397 
1488856365.010522, 1488856365.010522, -1.029541, -0.253906, -0.767334, -62.063087, -84.433983, -122.846397 
1488856365.014407, 1488856365.014407, -1.029541, -0.253906, -0.767334, -62.063087, -84.433983, -122.846397 
1488856365.018163, 1488856365.018163, -1.479736, -0.595093, -0.356689, -75.719704, -4.523703, -79.633507 
1488856365.021909, 1488856365.021909, -1.479736, -0.595093, -0.356689, -75.719704, -4.523703, -79.633507 
1488856365.025772, 1488856365.025772, -1.479736, -0.595093, -0.356689, -75.719704, -4.523703, -79.633507 
1488856365.029511, 1488856365.029511, -1.479736, -0.595093, -0.356689, -28.035986, -9.803244, -25.113852 
1488856365.033316, 1488856365.033316, -1.479736, -0.595093, -0.356689, -28.035986, -9.803244, -25.113852 
1488856365.037263, 1488856365.037263, -0.358032, +0.500610, -1.361572, -28.035986, -9.803244, -25.113852 
1488856365.041326, 1488856365.041326, -0.358032, +0.500610, -1.361572, -18.071997, -40.641258, +4.015177 
1488856365.045288, 1488856365.045288, -0.358032, +0.500610, -1.361572, -18.071997, -40.641258, +4.015177 
1488856365.049224, 1488856365.049224, -0.358032, +0.500610, -1.361572, -18.071997, -40.641258, +4.015177 
1488856365.053217, 1488856365.053217, -0.358032, +0.500610, -1.361572, +28.360498, -35.315941, +52.202435 
1488856365.057159, 1488856365.057159, +0.211060, +0.632446, +0.014038, +28.360498, -35.315941, +52.202435 
1488856365.061105, 1488856365.061105, +0.211060, +0.632446, +0.014038, +28.360498, -7.972189, +96.193520 
1488856365.065095, 1488856365.065095, +0.211060, +0.632446, +0.014038, +69.620262, -5.362936, +96.193520 
1488856365.069045, 1488856365.069045, +0.211060, +0.632446, +0.014038, +69.620262, -5.362936, +96.193520 
1488856365.072998, 1488856365.072998, +0.211060, +0.632446, +0.014038, +35.974632, +23.521952, +121.019569 
1488856365.076752, 1488856365.076752, +0.010864, +0.570557, -0.132324, +35.974632, +23.521952, +121.019569 
1488856365.080601, 1488856365.080601, +0.010864, +0.570557, -0.132324, +35.974632, +23.521952, +121.019569 
1488856365.084739, 1488856365.084739, +0.010864, +0.570557, -0.132324, -10.778296, +46.715309, +140.428757 
1488856365.088697, 1488856365.088697, +0.010864, +0.570557, -0.132324, -10.778296, +46.715309, +140.428757 
1488856365.092641, 1488856365.092641, +0.010864, +0.570557, -0.132324, -10.778296, +46.715309, +140.428757 
1488856365.096608, 1488856365.096608, -0.295532, +0.222778, -0.254028, -34.673561, +67.757179, +157.457565 
1488856365.100556, 1488856365.100556, -0.295532, +0.222778, -0.254028, -34.673561, +67.757179, +157.457565 
1488856365.104517, 1488856365.104517, -0.295532, +0.222778, -0.254028, -34.673561, +67.757179, +170.290207 
1488856365.108465, 1488856365.108465, -0.295532, +0.222778, -0.254028, -47.521461, +83.824684, +170.290207 
1488856365.112406, 1488856365.112406, -0.295532, +0.222778, -0.254028, -47.521461, +83.824684, +170.290207 
1488856365.116208, 1488856365.116208, -0.412231, +0.192017, -0.259155, -52.892555, +98.183205, +183.473801 
1488856365.119954, 1488856365.119954, -0.412231, +0.192017, -0.259155, -52.892555, +98.183205, +183.473801 
1488856365.123718, 1488856365.123718, -0.412231, +0.192017, -0.259155, -52.892555, +98.183205, +183.473801 
1488856365.127472, 1488856365.127472, -0.412231, +0.192017, -0.259155, -57.714333, +112.923195, +198.106979 
1488856365.131219, 1488856365.131219, -0.412231, +0.192017, -0.259155, -57.714333, +112.923195, +198.106979 
1488856365.135148, 1488856365.135148, -0.429321, +0.356567, -0.249268, -57.714333, +112.923195, +198.106979 
1488856365.138888, 1488856365.138888, -0.429321, +0.356567, -0.249268, -67.617287, +128.288803, +212.312912 
1488856365.142637, 1488856365.142637, -0.429321, +0.356567, -0.249268, -67.617287, +128.288803, +212.312912 
1488856365.146667, 1488856365.146667, -0.429321, +0.356567, -0.249268, -67.617287, +128.288803, +212.312912 
1488856365.150619, 1488856365.150619, -0.429321, +0.356567, -0.249268, -84.707130, +143.120346, +223.467087 
1488856365.154576, 1488856365.154576, -0.429321, +0.446655, -0.377441, -84.707130, +143.120346, +223.467087 
1488856365.158526, 1488856365.158526, -0.681763, +0.446655, -0.377441, -84.707130, +143.120346, +223.467087 
1488856365.162482, 1488856365.162482, -0.681763, +0.446655, -0.377441, -102.453102, +155.205307, +228.304123 
1488856365.166429, 1488856365.166429, -0.681763, +0.446655, -0.377441, -102.453102, +155.205307, +228.304123 
1488856365.170376, 1488856365.170376, -0.681763, +0.446655, -0.377441, -125.890602, +164.513168, +231.584763 
1488856365.174279, 1488856365.174279, -0.681763, +0.349121, -0.408813, -125.326027, +164.513168, +231.584763 
1488856365.178028, 1488856365.178028, -0.962891, +0.349121, -0.408813, -125.326027, +164.513168, +231.584763 
1488856365.181777, 1488856365.181777, -0.962891, +0.349121, -0.408813, -144.643646, +173.225937, +237.276291 
1488856365.185712, 1488856365.185712, -0.962891, +0.349121, -0.408813, -144.643646, +173.225937, +237.276291 
1488856365.189770, 1488856365.189770, -0.962891, +0.349121, -0.408813, -144.643646, +173.225937, +237.276291 
1488856365.193723, 1488856365.193723, -0.962891, +0.349121, -0.450195, -158.178192, +181.511459, +244.966721 
1488856365.197671, 1488856365.197671, -1.206421, +0.245239, -0.450195, -158.178192, +181.511459, +244.966721 
1488856365.201656, 1488856365.201656, -1.206421, +0.245239, -0.450195, -158.178192, +181.511459, +244.966721 
1488856365.205712, 1488856365.205712, -1.206421, +0.245239, -0.450195, -165.029388, +184.593735, +254.274582 
1488856365.209659, 1488856365.209659, -1.206421, +0.245239, -0.450195, -165.029388, +184.593735, +254.274582 
1488856365.213619, 1488856365.213619, -1.206421, +0.245239, -0.582397, -165.029388, +180.687485, +264.330109 
1488856365.217573, 1488856365.217573, -1.519897, +0.272827, -0.582397, -166.692596, +180.397568, +264.330109 
1488856365.221514, 1488856365.221514, -1.519897, +0.272827, -0.582397, -166.692596, +180.397568, +264.330109 
1488856365.225390, 1488856365.225390, -1.519897, +0.272827, -0.582397, -168.050629, +172.401962, +276.689728 
1488856365.229140, 1488856365.229140, -1.519897, +0.272827, -0.582397, -168.050629, +172.401962, +276.689728 
1488856365.232896, 1488856365.232896, -1.519897, +0.272827, -0.582397, -168.050629, +172.401962, +276.689728 
1488856365.236646, 1488856365.236646, -1.897217, +0.083008, -0.702515, -170.431000, +166.298447, +290.636261 
1488856365.240406, 1488856365.240406, -1.897217, +0.083008, -0.702515, -170.431000, +166.298447, +290.636261 
1488856365.244172, 1488856365.244172, -1.897217, +0.083008, -0.702515, -170.431000, +166.298447, +290.636261 
1488856365.247929, 1488856365.247929, -1.897217, +0.083008, -0.702515, -171.666962, +162.376938, +304.750641 
1488856365.251686, 1488856365.251686, -1.897217, +0.083008, -0.702515, -171.666962, +162.376938, +304.750641 
1488856365.255551, 1488856365.255551, -2.380981, -0.643311, -0.890625, -171.666962, +162.376938, +304.750641 
1488856365.259307, 1488856365.259307, -2.380981, -0.643311, -0.890625, -160.741669, +159.187851, +315.233429 
1488856365.263130, 1488856365.263130, -2.380981, -0.643311, -0.890625, -160.741669, +159.187851, +315.233429 
1488856365.267077, 1488856365.267077, -2.380981, -0.643311, -0.890625, -160.741669, +159.187851, +315.233429 
1488856365.271032, 1488856365.271032, -2.380981, -0.643311, -0.890625, -133.352142, +155.617294, +317.995270 
1488856365.274909, 1488856365.274909, -2.873047, -1.216309, -0.964600, -133.352142, +155.617294, +317.995270 
1488856365.278663, 1488856365.278663, -2.873047, -1.216309, -0.964600, -133.352142, +155.617294, +307.787140 
1488856365.282411, 1488856365.282411, -2.873047, -1.216309, -0.964600, -98.699440, +152.931747, +307.787140 
1488856365.286352, 1488856365.286352, -2.873047, -1.216309, -0.964600, -98.699440, +152.931747, +307.787140 
1488856365.290295, 1488856365.290295, -2.873047, -1.216309, -0.964600, -59.636940, +145.302353, +288.255890 
1488856365.294226, 1488856365.294226, -2.646362, -1.591309, -1.092163, -60.766090, +145.302353, +288.255890 
1488856365.297965, 1488856365.297965, -2.646362, -1.591309, -1.092163, -60.766090, +145.302353, +288.255890 
1488856365.301717, 1488856365.301717, -2.646362, -1.591309, -1.092163, -7.818091, +145.943222, +267.534454 
1488856365.305635, 1488856365.305635, -2.646362, -1.591309, -1.092163, -7.818091, +145.943222, +267.534454 
1488856365.309378, 1488856365.309378, -2.646362, -1.591309, -1.092163, -7.818091, +145.943222, +267.534454 
1488856365.313191, 1488856365.313191, -2.646362, -2.623047, +0.059204, +42.505394, +137.047348, +229.509567 
1488856365.317158, 1488856365.317158, -2.440552, -2.623047, +0.059204, +42.505394, +137.047348, +229.509567 
1488856365.321293, 1488856365.321293, -2.440552, -2.623047, +0.059204, +42.505394, +137.047348, +229.509567 
1488856365.325597, 1488856365.325597, -2.440552, -2.623047, +0.059204, +67.834984, +110.695412, +167.543625 
1488856365.329345, 1488856365.329345, -2.440552, -2.623047, +0.059204, +67.834984, +110.695412, +167.543625 
1488856365.333289, 1488856365.333289, -2.378052, -2.443359, +1.020996, +67.834984, +110.695412, +102.251259 
1488856365.337233, 1488856365.337233, -2.394897, -2.443359, +1.020996, +91.974388, +78.835060, +102.251259 
1488856365.341181, 1488856365.341181, -2.394897, -2.443359, +1.020996, +91.974388, +78.835060, +102.251259 
1488856365.345134, 1488856365.345134, -2.394897, -2.443359, +1.020996, +75.937401, +28.557352, +21.837442 
1488856365.349084, 1488856365.349084, -2.394897, -2.443359, +1.020996, +75.937401, +28.557352, +21.837442 
1488856365.353039, 1488856365.353039, -2.394897, -1.881714, +1.164917, +75.937401, +28.557352, +21.837442 
1488856365.356794, 1488856365.356794, -2.336304, -1.881714, +1.164917, +46.472679, -22.178122, -62.680988 
1488856365.360550, 1488856365.360550, -2.336304, -1.881714, +1.164917, +46.472679, -22.178122, -62.680988 
1488856365.364304, 1488856365.364304, -2.336304, -1.881714, +1.164917, +46.472679, -22.178122, -62.680988 
1488856365.368063, 1488856365.368063, -2.336304, -1.881714, +1.164917, +13.712061, -57.715843, -134.595657 
1488856365.371808, 1488856365.371808, -2.336304, -1.881714, +1.164917, +13.712061, -57.715843, -134.595657 
