Calculating the offsets...
timestamp_before, timestamp_after, accel_x, accel_y, accel_z, gyro_x, gyro_y, gyro_z
1488854863.075731, 1488854863.075731, -0.919434, +0.221558, -0.326904, +14.485274, -11.116255, +14.051532 
1488854863.088903, 1488854863.088903, -0.801392, +0.234253, -0.186646, +30.751144, -6.904829, +16.782854 
1488854863.093567, 1488854863.093567, -0.801392, +0.234253, -0.186646, +30.751144, -6.904829, +16.782854 
1488854863.097517, 1488854863.097517, -0.801392, +0.234253, -0.186646, +42.134201, -8.064497, +16.111467 
1488854863.101456, 1488854863.101456, -0.801392, +0.234253, -0.186646, +42.134201, -8.064497, +16.111467 
1488854863.105412, 1488854863.105412, -0.986572, +0.304565, -0.179321, +42.134201, -8.064497, +16.111467 
1488854863.109352, 1488854863.109352, -0.986572, +0.304565, -0.179321, +43.675339, -9.071577, +11.869525 
1488854863.113296, 1488854863.113296, -0.986572, +0.304565, -0.179321, +43.675339, -9.071577, +11.869525 
1488854863.117043, 1488854863.117043, -0.986572, +0.304565, -0.179321, +43.675339, -9.071577, +11.869525 
1488854863.120786, 1488854863.120786, -0.986572, +0.304565, -0.179321, +42.042648, -9.651411, +7.139300 
1488854863.124598, 1488854863.124598, -0.986572, +0.153320, -0.206543, +42.042648, -9.651411, +7.139300 
1488854863.128348, 1488854863.128348, -1.220703, +0.153320, -0.206543, +42.042648, -9.651411, +3.233050 
1488854863.132091, 1488854863.132091, -1.220703, +0.153320, -0.206543, +33.863937, -11.589277, +3.217791 
1488854863.136065, 1488854863.136065, -1.220703, +0.153320, -0.206543, +33.863937, -11.589277, +3.217791 
1488854863.139989, 1488854863.139989, -1.220703, +0.153320, -0.206543, +29.957687, -10.826338, +1.310443 
1488854863.143910, 1488854863.143910, -1.220703, +0.153320, -0.332764, +31.224167, -10.826338, +1.310443 
1488854863.147794, 1488854863.147794, -1.137573, +0.110596, -0.332764, +31.224167, -10.826338, +1.310443 
1488854863.152730, 1488854863.152730, -1.137573, +0.110596, -0.332764, +27.897751, -8.644331, +1.508807 
1488854863.156706, 1488854863.156706, -1.137573, +0.110596, -0.332764, +27.897751, -8.644331, +1.508807 
1488854863.160623, 1488854863.160623, -1.137573, +0.110596, -0.332764, +27.897751, -8.644331, +1.508807 
1488854863.164557, 1488854863.164557, -1.200073, +0.160889, -0.312256, +26.387131, -9.544600, +5.186175 
1488854863.168467, 1488854863.168467, -1.187622, +0.160889, -0.312256, +26.387131, -9.544600, +5.186175 
1488854863.172383, 1488854863.172383, -1.187622, +0.160889, -0.312256, +26.387131, -9.544600, +8.588885 
1488854863.176312, 1488854863.176312, -1.187622, +0.160889, -0.312256, +24.601852, -10.612715, +8.588885 
1488854863.180228, 1488854863.180228, -1.187622, +0.160889, -0.312256, +24.601852, -10.612715, +8.588885 
1488854863.184170, 1488854863.184170, -1.187622, +0.138916, -0.232422, +24.022018, -12.108076, +11.076068 
1488854863.188109, 1488854863.188109, -1.116455, +0.138916, -0.232422, +24.022018, -12.108076, +11.076068 
1488854863.192074, 1488854863.192074, -1.116455, +0.138916, -0.232422, +24.022018, -12.108076, +11.076068 
1488854863.196028, 1488854863.196028, -1.116455, +0.138916, -0.232422, +22.221481, -14.534224, +9.061908 
1488854863.199967, 1488854863.199967, -1.116455, +0.138916, -0.232422, +22.221481, -14.534224, +9.061908 
1488854863.203921, 1488854863.203921, -1.116455, +0.101440, -0.252930, +22.221481, -14.534224, +9.061908 
1488854863.207865, 1488854863.207865, -1.203857, +0.101440, -0.252930, +11.677657, -18.440474, +6.422137 
1488854863.211804, 1488854863.211804, -1.203857, +0.101440, -0.252930, +11.677657, -18.440474, +6.422137 
1488854863.215756, 1488854863.215756, -1.203857, +0.101440, -0.252930, +11.677657, -22.346724, +6.269549 
1488854863.219699, 1488854863.219699, -1.203857, +0.101440, -0.252930, +10.182296, -20.973433, +6.269549 
1488854863.223663, 1488854863.223663, -1.203857, +0.163940, -0.320435, +10.182296, -20.973433, +6.269549 
1488854863.227409, 1488854863.227409, -1.212036, +0.178833, -0.320435, +9.739791, -22.926558, +5.964373 
1488854863.231154, 1488854863.231154, -1.212036, +0.178833, -0.320435, +9.739791, -22.926558, +5.964373 
1488854863.235213, 1488854863.235213, -1.212036, +0.178833, -0.320435, +9.739791, -22.926558, +5.964373 
1488854863.238963, 1488854863.238963, -1.212036, +0.178833, -0.320435, +6.215011, -24.818647, +6.620501 
1488854863.242705, 1488854863.242705, -1.212036, +0.178833, -0.320435, +6.215011, -24.818647, +6.620501 
1488854863.246607, 1488854863.246607, -1.187500, +0.261597, -0.301880, +6.215011, -24.818647, +6.620501 
1488854863.250495, 1488854863.250495, -1.187500, +0.261597, -0.301880, +2.568160, -26.420820, +8.268451 
1488854863.254482, 1488854863.254482, -1.187500, +0.261597, -0.301880, +2.568160, -26.420820, +8.268451 
1488854863.258399, 1488854863.258399, -1.187500, +0.261597, -0.301880, +2.568160, -26.420820, +8.268451 
1488854863.262304, 1488854863.262304, -1.187500, +0.261597, -0.301880, -0.742997, -27.061689, +7.993792 
1488854863.266270, 1488854863.266270, -1.107544, +0.254150, -0.326172, -0.742997, -27.061689, +7.993792 
1488854863.270177, 1488854863.270177, -1.107544, +0.254150, -0.326172, -0.742997, -27.061689, +7.917498 
1488854863.274099, 1488854863.274099, -1.107544, +0.254150, -0.326172, -2.970780, -25.688398, +7.917498 
1488854863.278005, 1488854863.278005, -1.107544, +0.254150, -0.326172, -2.970780, -25.688398, +7.917498 
1488854863.281922, 1488854863.281922, -1.107544, +0.254150, -0.326172, -3.733720, -23.567427, +8.558368 
1488854863.286064, 1488854863.286064, -1.080444, +0.176147, -0.303711, -3.733720, -23.567427, +8.558368 
1488854863.289806, 1488854863.289806, -1.080444, +0.176147, -0.303711, -3.733720, -23.567427, +8.558368 
1488854863.293672, 1488854863.293672, -1.080444, +0.176147, -0.303711, +0.813400, -22.514570, +8.680438 
1488854863.297559, 1488854863.297559, -1.080444, +0.176147, -0.303711, +0.813400, -22.514570, +8.680438 
1488854863.301491, 1488854863.301491, -1.080444, +0.176147, -0.303711, +0.813400, -22.514570, +8.680438 
1488854863.305797, 1488854863.305797, -1.016479, +0.306641, -0.262573, +4.292403, -22.728193, +10.206317 
1488854863.309742, 1488854863.309742, -1.016479, +0.306641, -0.262573, +4.292403, -22.728193, +10.206317 
1488854863.313703, 1488854863.313703, -1.016479, +0.306641, -0.262573, +4.292403, -22.728193, +9.351825 
1488854863.317644, 1488854863.317644, -1.016479, +0.306641, -0.262573, +2.736007, -22.621382, +9.351825 
1488854863.321586, 1488854863.321586, -1.016479, +0.306641, -0.262573, +2.736007, -22.621382, +9.351825 
1488854863.325415, 1488854863.325415, -1.047363, +0.259521, -0.252197, +1.881515, -24.193037, +7.505511 
1488854863.329155, 1488854863.329155, -1.047363, +0.259521, -0.252197, +1.881515, -24.193037, +7.505511 
1488854863.332895, 1488854863.332895, -1.047363, +0.259521, -0.252197, +1.881515, -24.193037, +7.505511 
1488854863.336637, 1488854863.336637, -1.047363, +0.259521, -0.252197, +4.109298, -25.062788, +7.734393 
1488854863.340384, 1488854863.340384, -1.047363, +0.259521, -0.252197, +4.109298, -25.062788, +7.734393 
1488854863.344134, 1488854863.344134, -1.131836, +0.229004, -0.201416, +4.109298, -25.062788, +7.734393 
1488854863.347876, 1488854863.347876, -1.131836, +0.229004, -0.201416, +5.467330, -25.993574, +8.695697 
1488854863.351618, 1488854863.351618, -1.131836, +0.229004, -0.201416, +5.467330, -25.993574, +8.695697 
1488854863.355515, 1488854863.355515, -1.131836, +0.229004, -0.201416, +5.467330, -25.993574, +8.695697 
1488854863.359262, 1488854863.359262, -1.131836, +0.229004, -0.201416, +6.840621, -27.488935, +7.780169 
1488854863.363117, 1488854863.363117, -1.079590, +0.250854, -0.225464, +6.840621, -27.488935, +7.780169 
1488854863.367050, 1488854863.367050, -1.079590, +0.250854, -0.225464, +6.840621, -27.488935, +7.780169 
1488854863.370989, 1488854863.370989, -1.079590, +0.250854, -0.225464, +10.121261, -26.725996, +8.237933 
1488854863.374982, 1488854863.374982, -1.079590, +0.250854, -0.225464, +10.121261, -26.725996, +8.237933 
1488854863.378723, 1488854863.378723, -1.079590, +0.250854, -0.225464, +10.121261, -26.725996, +8.237933 
1488854863.382466, 1488854863.382466, -1.079590, +0.313354, -0.272461, +8.076583, -25.184858, +9.092425 
1488854863.386531, 1488854863.386531, -1.023560, +0.342041, -0.272461, +8.076583, -25.184858, +9.092425 
1488854863.390806, 1488854863.390806, -1.023560, +0.342041, -0.272461, +3.041183, -25.123823, +7.383440 
1488854863.394627, 1488854863.394627, -1.023560, +0.342041, -0.272461, +3.041183, -25.123823, +7.383440 
1488854863.398367, 1488854863.398367, -1.023560, +0.342041, -0.272461, +3.041183, -25.123823, +7.383440 
1488854863.402106, 1488854863.402106, -1.023560, +0.342041, -0.272705, +2.125655, -25.093306, +7.291888 
1488854863.405853, 1488854863.405853, -0.982666, +0.380371, -0.272705, +2.125655, -25.093306, +7.291888 
1488854863.409590, 1488854863.409590, -0.982666, +0.380371, -0.272705, +2.125655, -25.093306, +7.291888 
1488854863.413334, 1488854863.413334, -0.982666, +0.380371, -0.272705, -0.804032, -25.337446, +7.322405 
1488854863.417077, 1488854863.417077, -0.982666, +0.380371, -0.272705, -0.804032, -25.337446, +7.322405 
1488854863.420809, 1488854863.420809, -0.982666, +0.380371, -0.272705, -0.804032, -25.337446, +7.322405 
1488854863.424648, 1488854863.424648, -1.089478, +0.342651, -0.228271, -1.124467, -25.657881, +6.925677 
1488854863.428385, 1488854863.428385, -1.089478, +0.342651, -0.228271, -1.124467, -25.657881, +6.925677 
1488854863.432117, 1488854863.432117, -1.089478, +0.342651, -0.228271, -1.124467, -25.657881, +6.925677 
1488854863.435924, 1488854863.435924, -1.089478, +0.342651, -0.228271, -1.231278, -25.917280, +7.047747 
1488854863.439659, 1488854863.439659, -1.089478, +0.342651, -0.228271, -1.231278, -25.917280, +7.047747 
1488854863.443667, 1488854863.443667, -1.127808, +0.186279, -0.172974, -1.231278, -25.917280, +7.047747 
1488854863.447516, 1488854863.447516, -1.127808, +0.186279, -0.172974, -2.757157, -26.451338, +5.796526 
1488854863.451255, 1488854863.451255, -1.127808, +0.186279, -0.172974, -2.757157, -26.451338, +5.796526 
1488854863.455235, 1488854863.455235, -1.127808, +0.186279, -0.172974, -2.757157, -26.451338, +3.751849 
1488854863.459701, 1488854863.459701, -1.127808, +0.186279, -0.172974, -1.017655, -25.154341, +3.751849 
1488854863.463692, 1488854863.463692, -1.089966, +0.321289, -0.151123, -1.017655, -25.154341, +3.751849 
1488854863.467627, 1488854863.467627, -1.089966, +0.321289, -0.151123, +0.782882, -22.804487, +3.751849 
1488854863.471564, 1488854863.471564, -1.089966, +0.321289, -0.151123, +0.782882, -22.804487, +3.751849 
1488854863.475397, 1488854863.475397, -1.089966, +0.321289, -0.151123, +0.782882, -22.804487, +3.751849 
1488854863.479133, 1488854863.479133, -1.089966, +0.321289, -0.151123, -4.023637, -20.881880, +3.995989 
1488854863.482878, 1488854863.482878, -1.079712, +0.348511, -0.137695, -4.023637, -20.881880, +3.995989 
1488854863.486926, 1488854863.486926, -1.079712, +0.348511, -0.137695, -4.023637, -20.881880, +3.995989 
1488854863.490866, 1488854863.490866, -1.079712, +0.348511, -0.137695, -10.691728, -18.959272, +1.936053 
1488854863.494725, 1488854863.494725, -1.079712, +0.348511, -0.137695, -10.691728, -18.959272, +1.936053 
1488854863.498477, 1488854863.498477, -1.079712, +0.348511, -0.137695, -10.691728, -18.959272, +1.936053 
1488854863.502215, 1488854863.502215, -1.015137, +0.268433, -0.074097, -12.187089, -18.165815, +1.234149 
1488854863.506088, 1488854863.506088, -1.015137, +0.268433, -0.074097, -12.187089, -18.165815, +1.234149 
1488854863.509835, 1488854863.509835, -1.015137, +0.268433, -0.074097, -12.187089, -22.072065, +1.844500 
1488854863.513624, 1488854863.513624, -1.015137, +0.268433, -0.074097, -11.714067, -19.417036, +1.844500 
1488854863.517551, 1488854863.517551, -1.015137, +0.268433, -0.074097, -11.714067, -19.417036, +1.844500 
1488854863.521462, 1488854863.521462, -1.015137, +0.285156, -0.219727, -7.792558, -20.393599, +2.866839 
1488854863.525392, 1488854863.525392, -0.996582, +0.285156, -0.219727, -7.792558, -20.393599, +2.866839 
1488854863.529305, 1488854863.529305, -0.996582, +0.285156, -0.219727, -7.792558, -20.393599, +2.866839 
1488854863.533263, 1488854863.533263, -0.996582, +0.285156, -0.219727, -4.435624, -19.661177, +4.697894 
1488854863.537304, 1488854863.537304, -0.996582, +0.285156, -0.219727, -4.435624, -19.661177, +4.697894 
1488854863.541223, 1488854863.541223, -0.996582, +0.316406, -0.206543, -4.435624, -19.661177, +4.697894 
1488854863.545155, 1488854863.545155, -1.075317, +0.335327, -0.206543, -7.380570, -19.844282, +5.186175 
1488854863.549070, 1488854863.549070, -1.075317, +0.335327, -0.206543, -7.380570, -19.844282, +5.186175 
1488854863.553138, 1488854863.553138, -1.075317, +0.335327, -0.206543, -7.380570, -19.844282, +4.224871 
1488854863.557015, 1488854863.557015, -1.075317, +0.335327, -0.206543, -9.760942, -20.088423, +4.224871 
1488854863.561486, 1488854863.561486, -1.106567, +0.266846, -0.107056, -9.760942, -20.088423, +4.224871 
1488854863.565434, 1488854863.565434, -1.118042, +0.266846, -0.107056, -9.654130, -20.485151, +3.065203 
1488854863.569370, 1488854863.569370, -1.118042, +0.266846, -0.107056, -9.654130, -20.485151, +3.065203 
1488854863.573318, 1488854863.573318, -1.118042, +0.266846, -0.107056, -9.654130, -20.485151, +3.065203 
1488854863.577259, 1488854863.577259, -1.118042, +0.266846, -0.107056, -7.960404, -21.385420, +1.966570 
1488854863.581200, 1488854863.581200, -1.180542, +0.126709, -0.087769, -7.960404, -21.385420, +1.966570 
1488854863.585147, 1488854863.585147, -1.167969, +0.126709, -0.087769, -7.960404, -21.385420, +1.966570 
1488854863.589086, 1488854863.589086, -1.167969, +0.126709, -0.087769, -6.358232, -22.743452, +0.333880 
1488854863.593414, 1488854863.593414, -1.167969, +0.126709, -0.087769, -6.358232, -22.743452, +0.333880 
1488854863.597167, 1488854863.597167, -1.167969, +0.126709, -0.087769, -6.358232, -23.826826, -0.047590 
1488854863.600906, 1488854863.600906, -1.167969, +0.211182, -0.165649, -1.032914, -23.826826, -0.047590 
1488854863.604654, 1488854863.604654, -1.161011, +0.211182, -0.165649, -1.032914, -23.826826, -0.047590 
1488854863.608397, 1488854863.608397, -1.161011, +0.211182, -0.165649, +1.530563, -25.657881, -0.169660 
1488854863.612131, 1488854863.612131, -1.161011, +0.211182, -0.165649, +1.530563, -25.657881, -0.169660 
1488854863.615924, 1488854863.615924, -1.161011, +0.211182, -0.165649, +1.530563, -25.657881, -0.169660 
1488854863.619665, 1488854863.619665, -1.161011, +0.211182, -0.165649, +0.737106, -26.848066, +0.959490 
1488854863.623464, 1488854863.623464, -1.071533, +0.301514, -0.220581, +0.737106, -26.848066, +0.959490 
1488854863.627204, 1488854863.627204, -1.071533, +0.301514, -0.220581, +0.737106, -26.848066, +0.959490 
1488854863.630946, 1488854863.630946, -1.071533, +0.301514, -0.220581, +1.133834, -29.075850, +3.660296 
1488854863.634784, 1488854863.634784, -1.071533, +0.301514, -0.220581, +1.133834, -29.075850, +3.660296 
1488854863.638519, 1488854863.638519, -1.071533, +0.301514, -0.220581, +1.133834, -29.075850, +3.660296 
1488854863.642257, 1488854863.642257, -1.170410, +0.238647, -0.196167, +4.155074, -32.646404, +5.415057 
1488854863.646110, 1488854863.646110, -1.170410, +0.238647, -0.196167, +4.155074, -32.646404, +5.415057 
1488854863.649845, 1488854863.649845, -1.170410, +0.238647, -0.196167, +4.155074, -32.646404, +5.415057 
1488854863.653631, 1488854863.653631, -1.170410, +0.238647, -0.196167, +6.626998, -34.889446, +7.291888 
1488854863.657368, 1488854863.657368, -1.170410, +0.238647, -0.196167, +6.626998, -34.889446, +7.291888 
1488854863.661104, 1488854863.661104, -1.204590, +0.231445, -0.112305, +6.626998, -34.889446, +7.291888 
1488854863.664852, 1488854863.664852, -1.204590, +0.231445, -0.112305, +4.734908, -37.834393, +8.161639 
1488854863.668600, 1488854863.668600, -1.204590, +0.231445, -0.112305, +4.734908, -37.834393, +8.161639 
1488854863.672343, 1488854863.672343, -1.204590, +0.231445, -0.112305, +4.734908, -37.834393, +8.161639 
1488854863.676142, 1488854863.676142, -1.204590, +0.231445, -0.112305, +2.583419, -39.024578, +7.841204 
1488854863.679891, 1488854863.679891, -1.204590, +0.231445, -0.072632, +2.583419, -39.024578, +7.841204 
1488854863.683739, 1488854863.683739, -1.144043, +0.453857, -0.072632, +2.583419, -39.024578, +7.383440 
1488854863.687799, 1488854863.687799, -1.144043, +0.453857, -0.072632, +1.301681, -38.002239, +7.383440 
1488854863.691742, 1488854863.691742, -1.144043, +0.453857, -0.072632, +1.301681, -38.002239, +7.383440 
1488854863.695697, 1488854863.695697, -1.144043, +0.453857, -0.072632, -7.166947, -38.521038, +4.438494 
1488854863.699744, 1488854863.699744, -1.144043, +0.453857, -0.114746, -7.166947, -38.521038, +4.438494 
1488854863.703670, 1488854863.703670, -1.132080, +0.405396, -0.114746, -7.166947, -38.521038, +4.438494 
1488854863.707414, 1488854863.707414, -1.132080, +0.405396, -0.114746, -12.797441, -39.619671, +3.141497 
1488854863.711161, 1488854863.711161, -1.132080, +0.405396, -0.114746, -12.797441, -39.619671, +3.141497 
1488854863.715013, 1488854863.715013, -1.132080, +0.405396, -0.114746, -12.797441, -39.619671, +3.141497 
1488854863.718948, 1488854863.718948, -1.132080, +0.405396, -0.114746, -18.107498, -42.335735, +2.317523 
1488854863.722884, 1488854863.722884, -1.153320, +0.314209, -0.149780, -18.107498, -42.335735, +2.317523 
1488854863.726821, 1488854863.726821, -1.153320, +0.314209, -0.149780, -18.107498, -42.335735, +2.317523 
1488854863.730762, 1488854863.730762, -1.153320, +0.314209, -0.149780, -22.730911, -45.967327, +1.112078 
1488854863.734639, 1488854863.734639, -1.153320, +0.314209, -0.149780, -22.730911, -45.967327, +1.112078 
1488854863.738386, 1488854863.738386, -1.153320, +0.314209, -0.149780, -22.730911, -45.967327, +0.486468 
1488854863.742134, 1488854863.742134, -1.184814, +0.222046, -0.048706, -22.822464, -48.195110, +0.486468 
1488854863.745907, 1488854863.745907, -1.184814, +0.222046, -0.048706, -22.822464, -48.195110, +0.486468 
1488854863.749662, 1488854863.749662, -1.184814, +0.222046, -0.048706, -22.822464, -54.130779, +1.646136 
1488854863.753565, 1488854863.753565, -1.184814, +0.222046, -0.048706, -22.898758, -54.130779, +1.646136 
1488854863.757309, 1488854863.757309, -1.184814, +0.222046, -0.048706, -22.898758, -54.130779, +1.646136 
1488854863.761054, 1488854863.761054, -1.138306, +0.080811, -0.057739, -23.493851, -60.158001, +1.401995 
1488854863.764930, 1488854863.764930, -1.138306, +0.080811, -0.057739, -23.493851, -60.158001, +1.401995 
1488854863.768869, 1488854863.768869, -1.138306, +0.080811, -0.057739, -23.493851, -60.158001, +1.401995 
1488854863.772807, 1488854863.772807, -1.138306, +0.080811, -0.057739, -29.978836, -67.787399, +0.959490 
1488854863.776761, 1488854863.776761, -1.138306, +0.080811, -0.057739, -29.978836, -67.787399, +0.959490 
1488854863.780708, 1488854863.780708, -1.107544, +0.194092, -0.104370, -29.978836, -67.787399, +0.959490 
1488854863.784691, 1488854863.784691, -1.107544, +0.194092, -0.104370, -27.216995, -72.105637, +1.936053 
1488854863.788630, 1488854863.788630, -1.107544, +0.194092, -0.104370, -27.216995, -72.105637, +1.936053 
1488854863.792568, 1488854863.792568, -1.107544, +0.194092, -0.104370, -27.216995, -72.105637, +3.782366 
1488854863.796522, 1488854863.796522, -1.107544, +0.194092, -0.104370, -26.774490, -73.967209, +3.782366 
1488854863.800463, 1488854863.800463, -1.239868, +0.347778, -0.102539, -26.774490, -73.967209, +3.782366 
1488854863.804501, 1488854863.804501, -1.239868, +0.347778, -0.102539, -18.473709, -71.953049, +11.137103 
1488854863.808254, 1488854863.808254, -1.239868, +0.347778, -0.102539, -18.473709, -71.953049, +11.137103 
1488854863.812015, 1488854863.812015, -1.239868, +0.347778, -0.102539, -18.473709, -71.953049, +11.137103 
1488854863.816028, 1488854863.816028, -1.239868, +0.347778, -0.102539, -7.792558, -69.542160, +14.387225 
1488854863.820042, 1488854863.820042, -1.025513, +0.380371, -0.088623, -7.792558, -69.542160, +14.387225 
1488854863.824710, 1488854863.824710, -1.025513, +0.380371, -0.088623, -7.792558, -69.542160, +14.387225 
1488854863.828452, 1488854863.828452, -1.025513, +0.380371, -0.088623, +1.973068, -62.797771, +12.128924 
1488854863.832192, 1488854863.832192, -1.025513, +0.380371, -0.088623, +1.973068, -62.797771, +12.128924 
1488854863.836004, 1488854863.836004, -1.025513, +0.380371, -0.088623, +1.973068, -62.797771, +12.128924 
1488854863.839860, 1488854863.839860, -0.997803, +0.301392, -0.009644, +1.027023, -59.440838, +11.030292 
1488854863.843653, 1488854863.843653, -0.997803, +0.301392, -0.009644, +1.027023, -59.440838, +11.030292 
1488854863.847402, 1488854863.847402, -0.997803, +0.301392, -0.009644, +1.027023, -55.534588, +8.634662 
1488854863.851145, 1488854863.851145, -0.997803, +0.301392, -0.009644, +0.233566, -56.938396, +8.634662 
1488854863.854890, 1488854863.854890, -0.997803, +0.301392, -0.009644, +0.233566, -56.938396, +8.634662 
1488854863.858639, 1488854863.858639, -0.997803, +0.395142, +0.190430, +4.139815, -54.130779, +8.527850 
1488854863.862376, 1488854863.862376, -1.199707, +0.391968, +0.190430, +4.444991, -54.130779, +8.527850 
1488854863.866169, 1488854863.866169, -1.199707, +0.391968, +0.190430, +4.444991, -54.130779, +8.527850 
1488854863.869904, 1488854863.869904, -1.199707, +0.391968, +0.190430, +7.969771, -54.603802, +9.458636 
1488854863.873807, 1488854863.873807, -1.199707, +0.391968, +0.190430, +7.969771, -54.603802, +9.458636 
1488854863.877550, 1488854863.877550, -1.199707, +0.391968, +0.190430, +7.969771, -54.603802, +9.458636 
1488854863.881294, 1488854863.881294, -1.342285, +0.362305, +0.023560, +7.298385, -53.596722, +4.591082 
1488854863.885230, 1488854863.885230, -1.342285, +0.362305, +0.023560, +7.298385, -53.596722, +4.591082 
1488854863.889160, 1488854863.889160, -1.342285, +0.362305, +0.023560, +7.298385, -53.596722, +4.591082 
1488854863.893111, 1488854863.893111, -1.342285, +0.362305, +0.023560, -2.451981, -52.131878, +1.829241 
1488854863.897059, 1488854863.897059, -1.342285, +0.362305, +0.023560, -2.451981, -52.131878, +1.829241 
1488854863.901002, 1488854863.901002, -1.264893, +0.434204, +0.067749, -2.451981, -52.131878, -2.077009 
1488854863.905017, 1488854863.905017, -1.264893, +0.434204, +0.067749, -20.472610, -51.216351, -1.909162 
1488854863.908860, 1488854863.908860, -1.264893, +0.434204, +0.067749, -20.472610, -51.216351, -1.909162 
1488854863.912816, 1488854863.912816, -1.264893, +0.434204, +0.067749, -20.472610, -50.239788, -4.655744 
1488854863.916604, 1488854863.916604, -1.264893, +0.434204, +0.067749, -38.401688, -50.239788, -4.655744 
1488854863.920347, 1488854863.920347, -1.174805, +0.260620, +0.071533, -38.401688, -50.239788, -4.655744 
1488854863.924094, 1488854863.924094, -1.174805, +0.260620, +0.071533, -50.181473, -50.132977, -6.471540 
1488854863.927832, 1488854863.927832, -1.174805, +0.260620, +0.071533, -50.181473, -50.132977, -6.471540 
1488854863.931568, 1488854863.931568, -1.174805, +0.260620, +0.071533, -50.181473, -50.132977, -6.471540 
1488854863.935365, 1488854863.935365, -1.174805, +0.260620, +0.071533, -56.086624, -50.270306, -5.556013 
1488854863.939103, 1488854863.939103, -1.119141, +0.205200, +0.112549, -56.086624, -50.270306, -5.556013 
1488854863.942841, 1488854863.942841, -1.119141, +0.205200, +0.112549, -56.086624, -50.270306, -5.556013 
1488854863.946592, 1488854863.946592, -1.119141, +0.205200, +0.112549, -58.863724, -52.086102, -2.015974 
1488854863.950336, 1488854863.950336, -1.119141, +0.205200, +0.112549, -58.863724, -52.086102, -2.015974 
1488854863.954242, 1488854863.954242, -1.119141, +0.205200, +0.112549, -58.863724, -52.086102, -2.015974 
1488854863.957987, 1488854863.957987, -1.119141, +0.205566, +0.059692, -62.937820, -55.351482, +1.463030 
1488854863.961731, 1488854863.961731, -1.173706, +0.205566, +0.059692, -62.937820, -55.351482, +1.463030 
1488854863.965677, 1488854863.965677, -1.173706, +0.205566, +0.059692, -62.937820, -55.351482, +1.463030 
1488854863.969596, 1488854863.969596, -1.173706, +0.205566, +0.059692, -64.036453, -57.350384, +6.406878 
1488854863.973527, 1488854863.973527, -1.173706, +0.205566, +0.059692, -64.036453, -57.350384, +6.406878 
1488854863.977447, 1488854863.977447, -1.173706, +0.205566, +0.003906, -64.036453, -57.350384, +14.219378 
1488854863.981378, 1488854863.981378, -1.205933, +0.172974, +0.003906, -61.167801, -56.465374, +11.060809 
1488854863.985432, 1488854863.985432, -1.205933, +0.172974, +0.003906, -61.167801, -56.465374, +11.060809 
1488854863.989356, 1488854863.989356, -1.205933, +0.172974, +0.003906, -60.801590, -58.235394, +13.883685 
1488854863.993282, 1488854863.993282, -1.205933, +0.172974, +0.003906, -60.801590, -58.235394, +13.883685 
1488854863.997200, 1488854863.997200, -1.205933, +0.172974, +0.108398, -60.801590, -58.235394, +13.883685 
1488854864.001122, 1488854864.001122, -1.200439, +0.174194, +0.108398, -58.817947, -59.425579, +16.599749 
1488854864.005085, 1488854864.005085, -1.200439, +0.174194, +0.108398, -58.817947, -59.425579, +16.599749 
1488854864.009001, 1488854864.009001, -1.200439, +0.174194, +0.108398, -58.817947, -59.425579, +16.599749 
1488854864.012920, 1488854864.012920, -1.200439, +0.174194, +0.108398, -54.011429, -57.716595, +20.521257 
1488854864.016905, 1488854864.016905, -1.200439, +0.174194, +0.077148, -54.011429, -57.716595, +20.521257 
1488854864.021052, 1488854864.021052, -1.157837, +0.294678, +0.086670, -54.011429, -57.716595, +25.282000 
1488854864.025318, 1488854864.025318, -1.157837, +0.294678, +0.086670, -52.027786, -56.312786, +25.282000 
1488854864.029264, 1488854864.029264, -1.157837, +0.294678, +0.086670, -52.027786, -56.312786, +25.282000 
1488854864.033256, 1488854864.033256, -1.157837, +0.294678, +0.086670, -52.699173, -57.121502, +28.501604 
1488854864.037205, 1488854864.037205, -1.157837, +0.325928, +0.156250, -52.699173, -57.121502, +28.501604 
1488854864.041149, 1488854864.041149, -1.199463, +0.342163, +0.156250, -52.699173, -57.121502, +28.501604 
1488854864.045108, 1488854864.045108, -1.199463, +0.342163, +0.156250, -54.102982, -58.983074, +30.180071 
1488854864.049050, 1488854864.049050, -1.199463, +0.342163, +0.156250, -54.102982, -58.983074, +30.180071 
1488854864.053006, 1488854864.053006, -1.199463, +0.342163, +0.156250, -54.102982, -58.983074, +30.180071 
1488854864.056765, 1488854864.056765, -1.199463, +0.342163, +0.114868, -54.804886, -58.418499, +30.225847 
1488854864.060510, 1488854864.060510, -1.080688, +0.312744, +0.114868, -54.804886, -58.418499, +30.225847 
1488854864.064270, 1488854864.064270, -1.080688, +0.312744, +0.114868, -54.804886, -58.418499, +30.225847 
1488854864.068014, 1488854864.068014, -1.080688, +0.312744, +0.114868, -55.720413, -56.953655, +29.874895 
1488854864.071767, 1488854864.071767, -1.080688, +0.312744, +0.114868, -55.720413, -56.953655, +29.874895 
1488854864.075690, 1488854864.075690, -1.080688, +0.312744, +0.114868, -55.720413, -56.953655, +28.638933 
1488854864.079438, 1488854864.079438, -0.956543, +0.302124, +0.108032, -57.871902, -55.626141, +28.638933 
1488854864.083364, 1488854864.083364, -0.956543, +0.302124, +0.108032, -57.871902, -55.626141, +28.638933 
1488854864.087304, 1488854864.087304, -0.956543, +0.302124, +0.108032, -60.023392, -53.184734, +26.731585 
1488854864.091244, 1488854864.091244, -0.956543, +0.302124, +0.108032, -60.023392, -53.184734, +26.731585 
1488854864.095202, 1488854864.095202, -0.956543, +0.302124, +0.108032, -60.023392, -53.184734, +26.731585 
1488854864.099147, 1488854864.099147, -0.914673, +0.278564, +0.181641, -62.037552, -51.033245, +25.785540 
1488854864.103095, 1488854864.103095, -0.914673, +0.278564, +0.181641, -62.037552, -51.033245, +25.785540 
1488854864.106839, 1488854864.106839, -0.914673, +0.278564, +0.181641, -62.037552, -51.033245, +25.785540 
1488854864.110589, 1488854864.110589, -0.914673, +0.278564, +0.181641, -61.625565, -50.667034, +24.961565 
1488854864.114412, 1488854864.114412, -0.914673, +0.278564, +0.181641, -61.625565, -50.667034, +24.961565 
1488854864.118365, 1488854864.118365, -0.994507, +0.341675, +0.466064, -61.625565, -50.667034, +24.961565 
1488854864.122308, 1488854864.122308, -0.994507, +0.341675, +0.466064, -59.138382, -52.376019, +23.374651 
1488854864.126315, 1488854864.126315, -0.994507, +0.341675, +0.466064, -59.138382, -52.376019, +23.374651 
1488854864.130257, 1488854864.130257, -0.994507, +0.341675, +0.466064, -59.138382, -52.376019, +22.077654 
1488854864.134220, 1488854864.134220, -0.994507, +0.341675, +0.466064, -54.759109, -54.634319, +22.077654 
1488854864.138271, 1488854864.138271, -0.893188, +0.369507, +0.465088, -54.759109, -54.634319, +22.077654 
1488854864.142287, 1488854864.142287, -0.893188, +0.369507, +0.465088, -47.663773, -52.986370, +21.345232 
1488854864.146532, 1488854864.146532, -0.893188, +0.369507, +0.465088, -47.663773, -52.986370, +21.345232 
1488854864.150472, 1488854864.150472, -0.893188, +0.369507, +0.465088, -47.663773, -52.986370, +21.345232 
1488854864.154355, 1488854864.154355, -0.893188, +0.369507, +0.465088, -35.685623, -47.249065, +21.970842 
1488854864.158104, 1488854864.158104, -0.661743, +0.418335, +0.291992, -35.685623, -47.249065, +21.970842 
1488854864.161853, 1488854864.161853, -0.661743, +0.418335, +0.291992, -35.685623, -47.249065, +21.970842 
1488854864.165758, 1488854864.165758, -0.661743, +0.418335, +0.291992, -23.036087, -35.270916, +24.015520 
1488854864.169705, 1488854864.169705, -0.661743, +0.418335, +0.291992, -23.036087, -35.270916, +24.015520 
1488854864.173657, 1488854864.173657, -0.661743, +0.418335, +0.291992, -23.036087, -35.270916, +21.848772 
1488854864.177413, 1488854864.177413, -0.601440, +0.147339, +0.015625, -10.569657, -18.150557, +21.848772 
1488854864.181167, 1488854864.181167, -0.601440, +0.147339, +0.015625, -10.569657, -18.150557, +21.848772 
1488854864.184921, 1488854864.184921, -0.601440, +0.147339, +0.015625, -10.569657, -6.431806, +12.464618 
1488854864.188672, 1488854864.188672, -0.601440, +0.147339, +0.015625, -2.635087, -5.806196, +12.464618 
1488854864.192415, 1488854864.192415, -0.601440, +0.147339, +0.015625, -2.635087, -5.806196, +12.464618 
1488854864.196291, 1488854864.196291, -0.601440, +0.137085, +0.061401, -5.335893, +1.502764, +1.508807 
1488854864.200033, 1488854864.200033, -0.588501, +0.137085, +0.061401, -5.335893, +1.502764, +1.508807 
1488854864.203929, 1488854864.203929, -0.588501, +0.137085, +0.061401, -5.335893, +1.502764, +1.508807 
1488854864.207674, 1488854864.207674, -0.588501, +0.137085, +0.061401, -17.100418, +8.353960, -8.302594 
1488854864.211419, 1488854864.211419, -0.588501, +0.137085, +0.061401, -17.100418, +8.353960, -8.302594 
1488854864.215325, 1488854864.215325, -0.588501, +0.137085, +0.217651, -17.100418, +8.353960, -8.302594 
1488854864.219261, 1488854864.219261, -0.687134, +0.106079, +0.212036, -29.627884, +12.428057, -17.045881 
1488854864.223253, 1488854864.223253, -0.687134, +0.106079, +0.212036, -29.627884, +12.428057, -17.045881 
1488854864.227199, 1488854864.227199, -0.687134, +0.106079, +0.212036, -29.627884, +12.428057, -17.045881 
1488854864.231151, 1488854864.231151, -0.687134, +0.106079, +0.212036, -31.840408, +16.670000, -23.744490 
1488854864.235101, 1488854864.235101, -0.687134, +0.106079, +0.243286, -31.840408, +16.670000, -23.744490 
1488854864.239050, 1488854864.239050, -0.716797, +0.002075, +0.221191, -31.840408, +16.670000, -27.910139 
1488854864.243003, 1488854864.243003, -0.716797, +0.002075, +0.221191, -22.074783, +22.346270, -27.910139 
1488854864.246948, 1488854864.246948, -0.716797, +0.002075, +0.221191, -22.074783, +22.346270, -27.910139 
1488854864.250897, 1488854864.250897, -0.716797, +0.002075, +0.221191, -4.939164, +30.936968, -30.443098 
1488854864.254809, 1488854864.254809, -0.716797, +0.002075, +0.221191, -4.939164, +30.936968, -30.443098 
1488854864.258597, 1488854864.258597, -0.751343, -0.026001, +0.143066, -4.939164, +30.936968, -30.443098 
1488854864.262864, 1488854864.262864, -0.751343, -0.026001, +0.143066, +10.746871, +40.534748, -33.357525 
1488854864.266818, 1488854864.266818, -0.751343, -0.026001, +0.143066, +10.746871, +40.534748, -33.357525 
1488854864.270769, 1488854864.270769, -0.751343, -0.026001, +0.143066, +10.746871, +40.534748, -33.357525 
1488854864.274726, 1488854864.274726, -0.751343, -0.026001, +0.143066, +20.131027, +47.935261, -37.446880 
1488854864.278670, 1488854864.278670, -0.833496, +0.037842, +0.129395, +20.131027, +47.935261, -37.446880 
1488854864.282619, 1488854864.282619, -0.833496, +0.037842, +0.129395, +20.131027, +47.935261, -41.719341 
1488854864.286680, 1488854864.286680, -0.833496, +0.037842, +0.129395, +23.182785, +53.352131, -41.719341 
1488854864.290618, 1488854864.290618, -0.833496, +0.037842, +0.129395, +23.182785, +53.352131, -41.719341 
1488854864.294510, 1488854864.294510, -0.833496, +0.037842, +0.129395, +23.747360, +58.524860, -44.618511 
1488854864.298255, 1488854864.298255, -0.842407, +0.148438, +0.156250, +23.747360, +58.524860, -44.618511 
1488854864.302005, 1488854864.302005, -0.842407, +0.148438, +0.156250, +23.747360, +58.524860, -44.618511 
1488854864.305910, 1488854864.305910, -0.842407, +0.148438, +0.156250, +27.653610, +63.285603, -46.098614 
1488854864.309660, 1488854864.309660, -0.842407, +0.148438, +0.156250, +27.653610, +63.285603, -46.098614 
1488854864.313587, 1488854864.313587, -0.842407, +0.148438, +0.156250, +27.653610, +63.285603, -46.098614 
1488854864.317532, 1488854864.317532, -0.837646, +0.192871, +0.116943, +34.626877, +68.763504, -47.059917 
1488854864.321480, 1488854864.321480, -0.837646, +0.192871, +0.116943, +34.626877, +68.763504, -47.059917 
1488854864.325432, 1488854864.325432, -0.837646, +0.192871, +0.116943, +34.626877, +68.763504, -47.059917 
1488854864.329376, 1488854864.329376, -0.837646, +0.192871, +0.116943, +42.927658, +74.805984, -47.319317 
1488854864.333331, 1488854864.333331, -0.837646, +0.192871, +0.116943, +42.927658, +74.805984, -47.319317 
1488854864.337269, 1488854864.337269, -0.876953, +0.223999, +0.035767, +42.927658, +78.712234, -47.456646 
1488854864.341219, 1488854864.341219, -0.876953, +0.223999, +0.035767, +48.314011, +80.955276, -47.456646 
1488854864.345074, 1488854864.345074, -0.876953, +0.223999, +0.035767, +48.314011, +80.955276, -47.456646 
1488854864.348824, 1488854864.348824, -0.876953, +0.223999, +0.035767, +48.954880, +86.631546, -49.150372 
1488854864.352575, 1488854864.352575, -0.876953, +0.223999, +0.035767, +48.954880, +86.631546, -49.150372 
1488854864.356549, 1488854864.356549, -0.966064, +0.199951, -0.043823, +48.954880, +86.631546, -49.150372 
1488854864.360499, 1488854864.360499, -0.966064, +0.199951, -0.043823, +44.041550, +90.690384, -51.423931 
1488854864.364489, 1488854864.364489, -0.966064, +0.199951, -0.043823, +44.041550, +90.690384, -51.423931 
1488854864.368430, 1488854864.368430, -0.966064, +0.199951, -0.043823, +44.041550, +90.690384, -51.423931 
1488854864.372925, 1488854864.372925, -0.966064, +0.199951, -0.043823, +38.716232, +93.131790, -53.758526 
1488854864.376920, 1488854864.376920, -1.083618, +0.153931, +0.002563, +38.716232, +93.131790, -53.758526 
1488854864.380871, 1488854864.380871, -1.083618, +0.153931, +0.002563, +38.716232, +97.038040, -55.314922 
1488854864.384822, 1488854864.384822, -1.083618, +0.153931, +0.002563, +36.198532, +94.459305, -55.314922 
1488854864.388767, 1488854864.388767, -1.083618, +0.153931, +0.002563, +36.198532, +94.459305, -55.314922 
1488854864.392715, 1488854864.392715, -1.083618, +0.153931, +0.002563, +38.350021, +95.634232, -57.496929 
1488854864.396522, 1488854864.396522, -1.146851, +0.114258, -0.000610, +38.350021, +95.634232, -57.496929 
1488854864.400275, 1488854864.400275, -1.146851, +0.114258, -0.000610, +38.350021, +95.634232, -57.496929 
1488854864.404072, 1488854864.404072, -1.146851, +0.114258, -0.000610, +42.805588, +98.655472, -58.748150 
1488854864.407826, 1488854864.407826, -1.146851, +0.114258, -0.000610, +42.805588, +98.655472, -58.748150 
1488854864.411570, 1488854864.411570, -1.146851, +0.114258, -0.000610, +42.805588, +98.655472, -58.748150 
1488854864.415488, 1488854864.415488, -1.177002, +0.112793, -0.072754, +48.222458, +102.454910, -59.968853 
1488854864.419235, 1488854864.419235, -1.177002, +0.112793, -0.072754, +48.222458, +102.454910, -59.968853 
1488854864.423153, 1488854864.423153, -1.177002, +0.112793, -0.072754, +48.222458, +102.454910, -59.968853 
1488854864.427031, 1488854864.427031, -1.177002, +0.112793, -0.072754, +52.311813, +105.384598, -61.998272 
1488854864.430909, 1488854864.430909, -1.177002, +0.112793, -0.072754, +52.311813, +105.384598, -61.998272 
1488854864.434923, 1488854864.434923, -1.209473, +0.131348, -0.128540, +52.311813, +105.384598, -62.868023 
1488854864.438874, 1488854864.438874, -1.209473, +0.131348, -0.128540, +55.073654, +107.948074, -62.868023 
1488854864.442817, 1488854864.442817, -1.209473, +0.131348, -0.128540, +55.073654, +107.948074, -62.868023 
1488854864.446589, 1488854864.446589, -1.209473, +0.131348, -0.128540, +58.979904, +110.297928, -62.669659 
1488854864.450345, 1488854864.450345, -1.209473, +0.131348, -0.128540, +58.354294, +110.297928, -62.669659 
1488854864.454160, 1488854864.454160, -1.209473, +0.163574, -0.171997, +58.354294, +110.297928, -62.669659 
1488854864.458109, 1488854864.458109, -1.243530, +0.163574, -0.171997, +61.528122, +112.373123, -61.815166 
1488854864.462050, 1488854864.462050, -1.243530, +0.163574, -0.171997, +61.528122, +112.373123, -61.815166 
1488854864.466004, 1488854864.466004, -1.243530, +0.163574, -0.171997, +61.528122, +112.373123, -61.815166 
1488854864.469947, 1488854864.469947, -1.243530, +0.163574, -0.171997, +66.121017, +113.715897, -60.167217 
1488854864.473904, 1488854864.473904, -1.243530, +0.132324, -0.177490, +66.121017, +113.715897, -60.167217 
1488854864.477849, 1488854864.477849, -1.260376, +0.151123, -0.177490, +66.121017, +113.715897, -60.167217 
1488854864.482052, 1488854864.482052, -1.260376, +0.151123, -0.177490, +72.438156, +115.058670, -57.573223 
1488854864.486260, 1488854864.486260, -1.260376, +0.151123, -0.177490, +72.438156, +115.058670, -57.573223 
1488854864.490209, 1488854864.490209, -1.260376, +0.151123, -0.177490, +78.770554, +116.828690, -55.086040 
1488854864.494118, 1488854864.494118, -1.260376, +0.213501, -0.209961, +78.770554, +116.828690, -55.086040 
1488854864.497867, 1488854864.497867, -1.274902, +0.213501, -0.209961, +78.770554, +116.828690, -55.086040 
1488854864.501620, 1488854864.501620, -1.274902, +0.213501, -0.209961, +82.844650, +119.132767, -53.499126 
1488854864.505532, 1488854864.505532, -1.274902, +0.213501, -0.209961, +82.844650, +119.132767, -53.499126 
1488854864.509479, 1488854864.509479, -1.274902, +0.213501, -0.209961, +82.844650, +119.132767, -53.499126 
1488854864.513456, 1488854864.513456, -1.274902, +0.276001, -0.270996, +83.775436, +121.604691, -53.209209 
1488854864.517206, 1488854864.517206, -1.307373, +0.271240, -0.270996, +83.775436, +121.604691, -53.209209 
1488854864.520961, 1488854864.520961, -1.307373, +0.271240, -0.270996, +83.775436, +121.604691, -53.209209 
1488854864.524719, 1488854864.524719, -1.307373, +0.271240, -0.270996, +82.447922, +123.206863, -52.904034 
1488854864.528470, 1488854864.528470, -1.307373, +0.271240, -0.270996, +82.447922, +123.206863, -52.904034 
1488854864.532223, 1488854864.532223, -1.307373, +0.271240, -0.270996, +82.447922, +123.206863, -52.904034 
1488854864.536116, 1488854864.536116, -1.335449, +0.270630, -0.350220, +79.945480, +124.793777, -53.514385 
1488854864.539867, 1488854864.539867, -1.335449, +0.270630, -0.350220, +79.945480, +124.793777, -53.514385 
1488854864.543771, 1488854864.543771, -1.335449, +0.270630, -0.350220, +79.945480, +124.793777, -53.514385 
1488854864.547525, 1488854864.547525, -1.335449, +0.270630, -0.350220, +75.871384, +125.480423, -54.719830 
1488854864.551270, 1488854864.551270, -1.335449, +0.270630, -0.350220, +75.871384, +125.480423, -54.719830 
1488854864.555136, 1488854864.555136, -1.325928, +0.282837, -0.401611, +75.871384, +125.388870, -55.589581 
1488854864.559079, 1488854864.559079, -1.325928, +0.282837, -0.401611, +69.798386, +125.388870, -55.589581 
1488854864.563030, 1488854864.563030, -1.325928, +0.282837, -0.401611, +69.798386, +125.388870, -55.589581 
1488854864.566976, 1488854864.566976, -1.325928, +0.282837, -0.401611, +62.413132, +125.785599, -55.818462 
1488854864.570926, 1488854864.570926, -1.325928, +0.282837, -0.401611, +62.413132, +125.785599, -55.818462 
1488854864.574880, 1488854864.574880, -1.321289, +0.312866, -0.370728, +62.413132, +125.785599, -55.818462 
1488854864.578830, 1488854864.578830, -1.321289, +0.312866, -0.370728, +53.227341, +126.273880, -56.184673 
1488854864.582880, 1488854864.582880, -1.321289, +0.312866, -0.370728, +53.227341, +126.273880, -56.184673 
1488854864.586836, 1488854864.586836, -1.321289, +0.312866, -0.370728, +53.227341, +126.273880, -56.184673 
1488854864.590783, 1488854864.590783, -1.321289, +0.312866, -0.370728, +42.469894, +125.068436, -55.726910 
1488854864.594663, 1488854864.594663, -1.383301, +0.383911, -0.184814, +42.469894, +125.068436, -55.726910 
1488854864.598409, 1488854864.598409, -1.383301, +0.383911, -0.184814, +42.469894, +125.068436, -53.331280 
1488854864.602349, 1488854864.602349, -1.383301, +0.383911, -0.184814, +32.887375, +121.574173, -53.331280 
1488854864.606712, 1488854864.606712, -1.383301, +0.383911, -0.184814, +32.887375, +121.574173, -53.331280 
1488854864.610656, 1488854864.610656, -1.383301, +0.383911, -0.184814, +26.554977, +116.660843, -47.929668 
1488854864.614607, 1488854864.614607, -1.333740, +0.424927, -0.203247, +26.554977, +116.660843, -47.929668 
1488854864.618548, 1488854864.618548, -1.333740, +0.424927, -0.203247, +26.554977, +116.660843, -47.929668 
1488854864.622496, 1488854864.622496, -1.333740, +0.424927, -0.203247, +24.205124, +115.485916, -42.711163 
1488854864.626442, 1488854864.626442, -1.333740, +0.424927, -0.203247, +24.205124, +115.485916, -42.711163 
1488854864.630388, 1488854864.630388, -1.333740, +0.424927, -0.203247, +24.205124, +115.485916, -42.711163 
1488854864.634290, 1488854864.634290, -1.257324, +0.193604, -0.429077, +23.579514, +119.498978, -39.415264 
1488854864.638045, 1488854864.638045, -1.257324, +0.193604, -0.429077, +23.579514, +119.498978, -39.415264 
1488854864.641792, 1488854864.641792, -1.257324, +0.193604, -0.429077, +23.579514, +119.498978, -37.340069 
1488854864.645586, 1488854864.645586, -1.257324, +0.193604, -0.429077, +21.550095, +119.300613, -37.340069 
1488854864.649340, 1488854864.649340, -1.257324, +0.193604, -0.429077, +21.550095, +119.300613, -37.340069 
1488854864.653151, 1488854864.653151, -1.317871, +0.089722, -0.319946, +21.550095, +114.234695, -36.912823 
1488854864.656922, 1488854864.656922, -1.317871, +0.089722, -0.319946, +15.843307, +114.234695, -36.912823 
1488854864.660670, 1488854864.660670, -1.317871, +0.089722, -0.319946, +15.843307, +114.234695, -36.912823 
1488854864.664631, 1488854864.664631, -1.317871, +0.089722, -0.319946, +11.418258, +109.641800, -36.409283 
1488854864.668577, 1488854864.668577, -1.317871, +0.089722, -0.319946, +11.418258, +109.641800, -36.409283 
1488854864.672521, 1488854864.672521, -1.317871, +0.019043, -0.357544, +11.418258, +109.641800, -36.409283 
1488854864.676515, 1488854864.676515, -1.235596, +0.019043, -0.357544, +10.609542, +107.429276, -34.791851 
1488854864.680460, 1488854864.680460, -1.235596, +0.019043, -0.357544, +10.609542, +107.429276, -34.791851 
1488854864.684343, 1488854864.684343, -1.235596, +0.019043, -0.357544, +10.609542, +107.429276, -34.791851 
1488854864.688088, 1488854864.688088, -1.235596, +0.019043, -0.357544, +13.676558, +105.308304, -33.403301 
1488854864.691843, 1488854864.691843, -1.235596, +0.019043, -0.110352, +13.676558, +105.308304, -33.403301 
1488854864.695616, 1488854864.695616, -1.307861, +0.017334, -0.110352, +13.676558, +105.308304, -33.403301 
1488854864.699356, 1488854864.699356, -1.307861, +0.017334, -0.110352, +19.886887, +97.831497, -30.534651 
1488854864.703249, 1488854864.703249, -1.307861, +0.017334, -0.110352, +19.886887, +97.831497, -30.534651 
1488854864.707021, 1488854864.707021, -1.307861, +0.017334, -0.110352, +19.886887, +97.831497, -22.722151 
1488854864.710771, 1488854864.710771, -1.307861, +0.017334, -0.110352, +29.423630, +86.936722, -24.324324 
1488854864.714706, 1488854864.714706, -1.133179, +0.160034, -0.087158, +29.423630, +86.936722, -24.324324 
1488854864.718611, 1488854864.718611, -1.133179, +0.160034, -0.087158, +38.563644, +82.633743, -17.564680 
1488854864.723148, 1488854864.723148, -1.133179, +0.160034, -0.087158, +38.563644, +82.633743, -17.564680 
1488854864.727097, 1488854864.727097, -1.133179, +0.160034, -0.087158, +38.563644, +82.633743, -17.564680 
1488854864.731143, 1488854864.731143, -1.133179, +0.160034, -0.087158, +43.202316, +86.219559, -13.780499 
1488854864.734996, 1488854864.734996, -1.103027, +0.089111, -0.308838, +43.202316, +86.219559, -13.780499 
1488854864.738749, 1488854864.738749, -1.103027, +0.089111, -0.308838, +43.202316, +86.219559, -13.780499 
1488854864.742501, 1488854864.742501, -1.103027, +0.089111, -0.308838, +42.698776, +85.624466, -13.872052 
1488854864.746432, 1488854864.746432, -1.103027, +0.089111, -0.308838, +42.698776, +85.624466, -13.872052 
1488854864.750384, 1488854864.750384, -1.103027, +0.089111, -0.308838, +42.698776, +85.624466, -13.872052 
1488854864.754283, 1488854864.754283, -1.135620, +0.088623, -0.280396, +38.060104, +80.970535, -14.436627 
1488854864.758028, 1488854864.758028, -1.135620, +0.088623, -0.280396, +38.060104, +80.970535, -14.436627 
1488854864.761771, 1488854864.761771, -1.135620, +0.088623, -0.280396, +38.060104, +80.970535, -13.444806 
1488854864.765576, 1488854864.765576, -1.135620, +0.088623, -0.280396, +32.261765, +75.523148, -13.444806 
1488854864.769325, 1488854864.769325, -1.135620, +0.088623, -0.280396, +32.261765, +75.523148, -13.444806 
1488854864.773156, 1488854864.773156, -1.141846, +0.189331, -0.231079, +28.355515, +69.938431, -12.452985 
1488854864.776925, 1488854864.776925, -1.141846, +0.189331, -0.231079, +25.288498, +69.938431, -12.452985 
1488854864.780677, 1488854864.780677, -1.141846, +0.189331, -0.231079, +25.288498, +69.938431, -12.452985 
1488854864.784573, 1488854864.784573, -1.141846, +0.189331, -0.231079, +16.972458, +64.002762, -12.300397 
1488854864.788319, 1488854864.788319, -1.141846, +0.189331, -0.231079, +16.972458, +64.002762, -12.300397 
1488854864.792060, 1488854864.792060, -1.146606, +0.176514, -0.177124, +16.972458, +64.002762, -12.300397 
1488854864.795935, 1488854864.795935, -1.146606, +0.176514, -0.177124, +10.075484, +56.678547, -11.720563 
1488854864.799674, 1488854864.799674, -1.146606, +0.176514, -0.177124, +10.075484, +56.678547, -11.720563 
1488854864.803467, 1488854864.803467, -1.146606, +0.176514, -0.177124, +10.075484, +56.678547, -11.720563 
1488854864.807210, 1488854864.807210, -1.146606, +0.176514, -0.177124, +7.069503, +48.515095, -9.263898 
1488854864.810947, 1488854864.810947, -1.146606, +0.176514, -0.178955, +7.069503, +48.515095, -9.263898 
1488854864.814693, 1488854864.814693, -1.090576, +0.156128, -0.178955, +7.069503, +48.515095, -9.263898 
1488854864.818434, 1488854864.818434, -1.090576, +0.156128, -0.178955, +7.679854, +40.397419, -5.037214 
1488854864.822173, 1488854864.822173, -1.090576, +0.156128, -0.178955, +7.679854, +40.397419, -5.037214 
1488854864.826001, 1488854864.826001, -1.090576, +0.156128, -0.178955, +7.679854, +40.397419, -5.037214 
1488854864.829737, 1488854864.829737, -1.090576, +0.156128, -0.178955, +10.456954, +34.538044, -0.932599 
1488854864.833519, 1488854864.833519, -1.092651, +0.064331, -0.268066, +10.456954, +34.538044, -0.932599 
1488854864.837444, 1488854864.837444, -1.092651, +0.064331, -0.268066, +10.456954, +34.538044, +2.973650 
1488854864.841461, 1488854864.841461, -1.092651, +0.064331, -0.268066, +11.738692, +29.227983, +2.973650 
1488854864.845525, 1488854864.845525, -1.092651, +0.064331, -0.268066, +11.738692, +29.227983, +2.973650 
1488854864.849770, 1488854864.849770, -1.092651, +0.064331, -0.268066, +9.556685, +23.093950, +6.910418 
1488854864.853725, 1488854864.853725, -1.096680, +0.073730, -0.253174, +9.556685, +23.093950, +6.910418 
1488854864.857667, 1488854864.857667, -1.096680, +0.073730, -0.253174, +9.556685, +23.093950, +6.910418 
1488854864.861604, 1488854864.861604, -1.096680, +0.073730, -0.253174, +5.864058, +17.387163, +10.923480 
1488854864.865563, 1488854864.865563, -1.096680, +0.073730, -0.253174, +5.864058, +17.387163, +10.923480 
1488854864.869499, 1488854864.869499, -1.096680, +0.073730, -0.253174, +5.864058, +17.387163, +10.923480 
1488854864.873462, 1488854864.873462, -1.114746, +0.002686, -0.255615, +4.490767, +12.183916, +14.143085 
1488854864.877202, 1488854864.877202, -1.114746, +0.002686, -0.255615, +4.490767, +12.183916, +14.143085 
1488854864.881055, 1488854864.881055, -1.114746, +0.002686, -0.255615, +4.490767, +12.183916, +18.049334 
1488854864.884840, 1488854864.884840, -1.114746, +0.002686, -0.255615, +6.489669, +6.782305, +16.462420 
1488854864.888584, 1488854864.888584, -1.114746, +0.002686, -0.255615, +6.489669, +6.782305, +16.462420 
1488854864.892328, 1488854864.892328, -1.095337, -0.013794, -0.213867, +6.489669, +6.782305, +18.873308 
1488854864.896116, 1488854864.896116, -1.095337, -0.013794, -0.213867, +12.516891, +1.411211, +18.873308 
1488854864.899868, 1488854864.899868, -1.095337, -0.013794, -0.213867, +12.516891, +1.411211, +18.873308 
1488854864.903791, 1488854864.903791, -1.095337, -0.013794, -0.213867, +20.329391, -3.212202, +22.779558 
1488854864.907735, 1488854864.907735, -1.095337, -0.013794, -0.213867, +20.176804, -3.212202, +22.779558 
1488854864.911674, 1488854864.911674, -1.075317, +0.061768, -0.266357, +20.176804, -3.212202, +22.779558 
1488854864.915614, 1488854864.915614, -1.075317, +0.061768, -0.266357, +28.233444, -6.447065, +27.586077 
1488854864.919555, 1488854864.919555, -1.075317, +0.061768, -0.266357, +28.233444, -6.447065, +27.586077 
1488854864.923510, 1488854864.923510, -1.075317, +0.061768, -0.266357, +28.233444, -6.447065, +27.586077 
1488854864.927451, 1488854864.927451, -1.075317, +0.061768, -0.266357, +34.260666, -8.857954, +31.385515 
1488854864.931393, 1488854864.931393, -1.175171, +0.020508, -0.275513, +34.260666, -8.857954, +31.385515 
1488854864.935236, 1488854864.935236, -1.175171, +0.020508, -0.275513, +34.260666, -8.857954, +31.385515 
1488854864.938984, 1488854864.938984, -1.175171, +0.020508, -0.275513, +38.533127, -14.274824, +35.444355 
1488854864.942736, 1488854864.942736, -1.175171, +0.020508, -0.275513, +38.533127, -14.274824, +35.444355 
1488854864.946726, 1488854864.946726, -1.175171, +0.020508, -0.275513, +38.533127, -14.274824, +40.189838 
1488854864.950742, 1488854864.950742, -1.158569, -0.034302, -0.230103, +41.523849, -24.269331, +40.189838 
1488854864.954700, 1488854864.954700, -1.158569, -0.034302, -0.230103, +41.523849, -24.269331, +40.189838 
1488854864.958640, 1488854864.958640, -1.158569, -0.034302, -0.230103, +45.521652, -30.342329, +44.035053 
1488854864.963511, 1488854864.963511, -1.158569, -0.034302, -0.230103, +45.521652, -30.342329, +44.035053 
1488854864.967255, 1488854864.967255, -1.158569, -0.034302, -0.230103, +45.521652, -30.342329, +44.035053 
1488854864.970994, 1488854864.970994, -0.978638, -0.321167, -0.567383, +52.708542, -31.746138, +45.698261 
1488854864.974739, 1488854864.974739, -0.978638, -0.321167, -0.567383, +52.708542, -31.746138, +45.698261 
1488854864.978472, 1488854864.978472, -0.978638, -0.321167, -0.567383, +52.708542, -31.746138, +45.698261 
1488854864.982213, 1488854864.982213, -0.978638, -0.321167, -0.567383, +64.091599, -27.137983, +41.914082 
1488854864.985987, 1488854864.985987, -0.978638, -0.321167, -0.567383, +64.091599, -27.137983, +41.914082 
1488854864.989731, 1488854864.989731, -0.978638, -0.508667, -0.825317, +64.091599, -27.137983, +41.914082 
1488854864.993510, 1488854864.993510, -0.877930, -0.525757, -0.825317, +70.057785, -17.143476, +37.672138 
1488854864.997260, 1488854864.997260, -0.877930, -0.525757, -0.825317, +70.057785, -17.143476, +37.672138 
1488854865.001004, 1488854865.001004, -0.877930, -0.525757, -0.825317, +70.057785, -17.143476, +36.268330 
1488854865.004800, 1488854865.004800, -0.877930, -0.525757, -0.825317, +72.010910, -14.656294, +36.268330 
1488854865.008546, 1488854865.008546, -0.877930, -0.525757, -0.825317, +72.010910, -14.656294, +36.268330 
1488854865.012278, 1488854865.012278, -1.129395, -0.401245, -0.564575, +72.010910, -26.375044, +39.823627 
1488854865.016128, 1488854865.016128, -1.129395, -0.401245, -0.564575, +70.637619, -25.108564, +39.823627 
1488854865.019883, 1488854865.019883, -1.129395, -0.401245, -0.564575, +70.637619, -25.108564, +39.823627 
1488854865.023797, 1488854865.023797, -1.129395, -0.401245, -0.564575, +66.731369, -29.884565, +43.729877 
1488854865.027857, 1488854865.027857, -1.129395, -0.401245, -0.564575, +66.731369, -29.884565, +43.729877 
1488854865.031802, 1488854865.031802, -1.117310, -0.267944, -0.653809, +66.731369, -29.884565, +43.729877 
1488854865.035624, 1488854865.035624, -1.117310, -0.267944, -0.653809, +53.364670, -31.547773, +45.957661 
1488854865.039377, 1488854865.039377, -1.117310, -0.267944, -0.653809, +53.364670, -31.547773, +45.957661 
1488854865.043127, 1488854865.043127, -1.117310, -0.267944, -0.653809, +53.364670, -31.547773, +45.957661 
1488854865.047071, 1488854865.047071, -1.117310, -0.267944, -0.653809, +40.532028, -37.636028, +47.590351 
1488854865.051015, 1488854865.051015, -1.223999, -0.143188, -0.546875, +40.532028, -37.636028, +47.590351 
1488854865.054883, 1488854865.054883, -1.223999, -0.143188, -0.546875, +40.532028, -37.636028, +47.590351 
1488854865.058635, 1488854865.058635, -1.223999, -0.143188, -0.546875, +23.289597, -44.883953, +49.558735 
1488854865.062383, 1488854865.062383, -1.223999, -0.143188, -0.546875, +23.289597, -44.883953, +49.558735 
1488854865.066417, 1488854865.066417, -1.223999, -0.143188, -0.546875, +23.289597, -44.883953, +50.565815 
1488854865.070361, 1488854865.070361, -1.085205, -0.088257, -0.613647, +7.618819, -45.097576, +50.565815 
1488854865.074389, 1488854865.074389, -1.085205, -0.088257, -0.613647, +7.618819, -45.097576, +50.565815 
1488854865.078144, 1488854865.078144, -1.085205, -0.088257, -0.613647, -7.182206, -41.099773, +47.041035 
1488854865.082029, 1488854865.082029, -1.085205, -0.088257, -0.613647, -7.182206, -41.099773, +47.041035 
1488854865.086028, 1488854865.086028, -1.085205, -0.088257, -0.613647, -7.182206, -41.099773, +47.041035 
1488854865.089974, 1488854865.089974, -1.286865, +1.322998, +0.035889, +8.381759, -37.468182, +67.792984 
1488854865.093926, 1488854865.093926, -1.286865, +1.322998, +0.035889, +8.381759, -37.468182, +67.792984 
1488854865.097871, 1488854865.097871, -1.286865, +1.322998, +0.035889, +8.381759, -37.468182, +67.792984 
1488854865.101818, 1488854865.101818, -1.286865, +1.322998, +0.035889, +82.600510, -33.287273, +117.048355 
1488854865.105780, 1488854865.105780, -1.286865, +1.322998, +0.035889, +82.600510, -33.287273, +117.048355 
1488854865.109723, 1488854865.109723, -1.847656, -0.059570, -0.655640, +82.600510, -33.287273, +97.517105 
1488854865.113663, 1488854865.113663, -1.847656, -0.059570, -0.655640, +115.513718, -66.276779, +96.830460 
1488854865.117812, 1488854865.117812, -1.847656, -0.059570, -0.655640, +115.513718, -66.276779, +96.830460 
1488854865.121566, 1488854865.121566, -1.847656, -0.059570, -0.655640, +80.357468, -91.438522, +47.544575 
1488854865.125368, 1488854865.125368, -1.847656, -0.059570, -0.655640, +80.677902, -91.438522, +47.544575 
1488854865.129118, 1488854865.129118, -1.097656, -0.068115, -0.369751, +80.677902, -91.438522, +47.544575 
1488854865.132873, 1488854865.132873, -1.123535, -0.068115, -0.369751, +28.340256, -69.236984, +33.979511 
1488854865.136818, 1488854865.136818, -1.123535, -0.068115, -0.369751, +28.340256, -69.236984, +33.979511 
1488854865.140758, 1488854865.140758, -1.123535, -0.068115, -0.369751, +28.340256, -69.236984, +33.979511 
1488854865.144715, 1488854865.144715, -1.123535, -0.068115, -0.369751, -2.024735, -55.595623, +31.904314 
1488854865.148652, 1488854865.148652, -1.123535, -0.218384, -0.321899, -2.024735, -55.595623, +31.904314 
1488854865.152594, 1488854865.152594, -0.970459, -0.218384, -0.321899, -2.024735, -55.595623, +31.904314 
1488854865.156369, 1488854865.156369, -0.970459, -0.218384, -0.321899, +1.179610, -40.550457, +41.227436 
1488854865.160117, 1488854865.160117, -0.970459, -0.218384, -0.321899, +1.179610, -40.550457, +41.227436 
1488854865.164002, 1488854865.164002, -0.970459, -0.218384, -0.321899, +1.179610, -40.550457, +41.227436 
1488854865.167752, 1488854865.167752, -0.970459, -0.218384, -0.321899, -1.841630, -45.021282, +44.538593 
1488854865.171496, 1488854865.171496, -1.077148, -0.118408, -0.191162, -1.841630, -45.021282, +44.538593 
1488854865.175371, 1488854865.175371, -1.077148, -0.118408, -0.191162, -1.841630, -45.021282, +42.463398 
1488854865.179225, 1488854865.179225, -1.077148, -0.118408, -0.191162, -1.811112, -46.043621, +42.463398 
1488854865.183015, 1488854865.183015, -1.077148, -0.118408, -0.191162, -1.811112, -46.043621, +42.463398 
1488854865.186955, 1488854865.186955, -1.077148, -0.118408, -0.191162, +5.604659, -41.221844, +44.874287 
1488854865.190898, 1488854865.190898, -1.081177, +0.113892, -0.396851, +5.604659, -41.221844, +44.874287 
1488854865.194878, 1488854865.194878, -1.081177, +0.113892, -0.396851, +5.604659, -41.221844, +44.874287 
1488854865.198823, 1488854865.198823, -1.081177, +0.113892, -0.396851, +10.929976, -40.626751, +46.033955 
1488854865.202770, 1488854865.202770, -1.081177, +0.113892, -0.396851, +10.929976, -40.626751, +46.033955 
1488854865.206717, 1488854865.206717, -1.081177, +0.113892, -0.396851, +10.929976, -40.626751, +46.033955 
1488854865.210666, 1488854865.210666, -1.058472, +0.258179, -0.340576, +2.125655, -40.519939, +43.867207 
1488854865.214535, 1488854865.214535, -1.058472, +0.258179, -0.340576, +2.125655, -40.519939, +43.867207 
1488854865.218276, 1488854865.218276, -1.058472, +0.258179, -0.340576, +2.125655, -40.519939, +43.867207 
1488854865.222025, 1488854865.222025, -1.058472, +0.258179, -0.340576, -4.527177, -38.826214, +41.059589 
1488854865.225943, 1488854865.225943, -1.058472, +0.258179, -0.340576, -4.527177, -38.826214, +41.059589 
1488854865.229971, 1488854865.229971, -0.905640, +0.095825, -0.489868, -4.527177, -34.919964, +36.909199 
1488854865.234171, 1488854865.234171, -0.905640, +0.095825, -0.489868, -1.429642, -35.499798, +36.909199 
1488854865.238112, 1488854865.238112, -0.905640, +0.095825, -0.489868, -1.429642, -35.499798, +36.909199 
1488854865.242254, 1488854865.242254, -0.905640, +0.095825, -0.489868, -1.948441, -31.593550, +34.940815 
1488854865.246213, 1488854865.246213, -0.905640, +0.095825, -0.489868, -1.948441, -31.593550, +34.940815 
1488854865.250162, 1488854865.250162, -0.991211, +0.177124, -0.283203, -1.948441, -31.593550, +34.940815 
1488854865.254117, 1488854865.254117, -0.991211, +0.177124, -0.283203, -2.635087, -29.747236, +33.704853 
1488854865.258065, 1488854865.258065, -0.991211, +0.177124, -0.283203, -2.635087, -29.747236, +33.704853 
1488854865.262019, 1488854865.262019, -0.991211, +0.177124, -0.283203, -2.635087, -29.747236, +33.704853 
1488854865.265834, 1488854865.265834, -0.991211, +0.177124, -0.283203, -3.398026, -27.290571, +31.721209 
1488854865.269586, 1488854865.269586, -1.050293, +0.146118, -0.248535, -3.398026, -27.290571, +31.721209 
1488854865.273338, 1488854865.273338, -1.050293, +0.146118, -0.248535, -3.398026, -27.290571, +28.425310 
1488854865.277092, 1488854865.277092, -1.050293, +0.146118, -0.248535, -7.151689, -26.024092, +28.425310 
1488854865.280839, 1488854865.280839, -1.050293, +0.146118, -0.248535, -7.151689, -26.024092, +28.425310 
1488854865.284741, 1488854865.284741, -1.050293, +0.146118, -0.248535, -7.151689, -24.574507, +25.678728 
1488854865.288493, 1488854865.288493, -1.085327, +0.114502, -0.235352, -8.784379, -24.574507, +25.678728 
1488854865.292242, 1488854865.292242, -1.085327, +0.114502, -0.235352, -8.784379, -24.574507, +25.678728 
1488854865.296211, 1488854865.296211, -1.085327, +0.114502, -0.235352, -9.654130, -24.376143, +24.580095 
1488854865.300127, 1488854865.300127, -1.085327, +0.114502, -0.235352, -9.654130, -24.376143, +24.580095 
1488854865.304049, 1488854865.304049, -1.085327, +0.114502, -0.235352, -9.654130, -24.376143, +24.580095 
1488854865.307947, 1488854865.307947, -1.090576, +0.019653, -0.238159, -11.378373, -25.047529, +23.573015 
1488854865.311958, 1488854865.311958, -1.090576, +0.019653, -0.238159, -11.378373, -25.047529, +23.573015 
1488854865.315768, 1488854865.315768, -1.090576, +0.019653, -0.238159, -11.378373, -25.047529, +23.573015 
1488854865.319517, 1488854865.319517, -1.090576, +0.019653, -0.238159, -14.170732, -25.596846, +22.581194 
1488854865.323316, 1488854865.323316, -1.090576, +0.019653, -0.238159, -14.170732, -25.596846, +22.581194 
1488854865.327384, 1488854865.327384, -1.090576, +0.062134, -0.268433, -14.170732, -25.596846, +22.581194 
1488854865.331334, 1488854865.331334, -1.081055, +0.062134, -0.268433, -13.774003, -27.031172, +24.259661 
1488854865.335292, 1488854865.335292, -1.081055, +0.062134, -0.268433, -13.774003, -27.031172, +24.259661 
1488854865.339234, 1488854865.339234, -1.081055, +0.062134, -0.268433, -13.774003, -27.641523, +26.884172 
1488854865.343232, 1488854865.343232, -1.081055, +0.062134, -0.268433, -12.080277, -27.641523, +26.884172 
1488854865.347183, 1488854865.347183, -1.081055, +0.190674, -0.528809, -12.080277, -27.641523, +26.884172 
1488854865.351191, 1488854865.351191, -1.045166, +0.190674, -0.528809, -12.858476, -30.021894, +28.089617 
1488854865.355314, 1488854865.355314, -1.045166, +0.190674, -0.528809, -12.858476, -30.021894, +28.089617 
1488854865.359257, 1488854865.359257, -1.045166, +0.190674, -0.528809, -12.858476, -30.021894, +28.089617 
1488854865.363251, 1488854865.363251, -1.045166, +0.190674, -0.528809, -10.279740, -29.579390, +27.662371 
1488854865.367004, 1488854865.367004, -1.045166, +0.341431, -0.521729, -10.279740, -29.579390, +27.662371 
1488854865.370749, 1488854865.370749, -1.055420, +0.341431, -0.521729, -10.279740, -29.579390, +27.662371 
1488854865.374591, 1488854865.374591, -1.055420, +0.341431, -0.521729, -10.432328, -29.319990, +25.755022 
1488854865.378534, 1488854865.378534, -1.055420, +0.341431, -0.521729, -10.432328, -29.319990, +25.755022 
1488854865.382483, 1488854865.382483, -1.055420, +0.341431, -0.521729, -10.432328, -29.319990, +21.833513 
1488854865.386262, 1488854865.386262, -1.055420, +0.341431, -0.427979, -11.256303, -27.305830, +21.833513 
1488854865.390015, 1488854865.390015, -1.027832, +0.214600, -0.422363, -11.256303, -27.305830, +21.833513 
1488854865.393774, 1488854865.393774, -1.027832, +0.214600, -0.422363, -11.256303, -23.887861, +18.232439 
1488854865.397526, 1488854865.397526, -1.027832, +0.214600, -0.422363, -10.691728, -23.887861, +18.232439 
1488854865.401274, 1488854865.401274, -1.027832, +0.214600, -0.422363, -10.691728, -23.887861, +18.232439 
1488854865.405143, 1488854865.405143, -1.027832, +0.214600, -0.422363, -8.982743, -21.721113, +17.088030 
1488854865.408886, 1488854865.408886, -1.036133, +0.174561, -0.208984, -8.982743, -21.721113, +17.088030 
1488854865.412632, 1488854865.412632, -1.036133, +0.174561, -0.208984, -8.982743, -21.721113, +17.088030 
1488854865.416477, 1488854865.416477, -1.036133, +0.174561, -0.208984, -7.426347, -19.676435, +14.616107 
1488854865.420225, 1488854865.420225, -1.036133, +0.174561, -0.208984, -7.426347, -19.676435, +14.616107 
1488854865.424122, 1488854865.424122, -1.036133, +0.174561, -0.208984, -7.426347, -19.676435, +14.616107 
1488854865.427999, 1488854865.427999, -1.026001, +0.260376, -0.288086, -4.801835, -16.884077, +12.693500 
1488854865.431876, 1488854865.431876, -1.026001, +0.260376, -0.288086, -4.801835, -16.884077, +12.693500 
1488854865.435804, 1488854865.435804, -1.026001, +0.260376, -0.288086, -4.801835, -16.884077, +12.693500 
1488854865.439747, 1488854865.439747, -1.026001, +0.260376, -0.288086, -3.565873, -13.496626, +10.908221 
1488854865.443695, 1488854865.443695, -1.026001, +0.260376, -0.288086, -3.565873, -13.496626, +10.908221 
1488854865.447643, 1488854865.447643, -1.074463, +0.232666, -0.306519, -3.565873, -13.496626, +7.642840 
1488854865.451579, 1488854865.451579, -1.074463, +0.232666, -0.306519, -6.434525, -12.932051, +7.642840 
1488854865.455465, 1488854865.455465, -1.074463, +0.232666, -0.306519, -6.434525, -12.932051, +7.642840 
1488854865.459208, 1488854865.459208, -1.074463, +0.232666, -0.306519, -8.677567, -13.542402, +5.888079 
1488854865.462950, 1488854865.462950, -1.074463, +0.232666, -0.306519, -8.677567, -13.542402, +5.888079 
1488854865.466953, 1488854865.466953, -1.052490, +0.173218, -0.388794, -8.677567, -13.542402, +5.888079 
1488854865.470980, 1488854865.470980, -1.052490, +0.173218, -0.388794, -6.846513, -13.420332, +6.300066 
1488854865.475545, 1488854865.475545, -1.052490, +0.173218, -0.388794, -6.846513, -13.420332, +6.300066 
1488854865.479397, 1488854865.479397, -1.052490, +0.173218, -0.388794, -6.846513, -13.420332, +6.300066 
1488854865.483131, 1488854865.483131, -1.052490, +0.173218, -0.388794, -3.169144, -12.245405, +7.520770 
1488854865.486868, 1488854865.486868, -1.126953, +0.291992, -0.291870, -3.169144, -12.245405, +7.520770 
1488854865.490600, 1488854865.490600, -1.126953, +0.291992, -0.291870, -3.169144, -12.245405, +7.520770 
1488854865.494338, 1488854865.494338, -1.126953, +0.291992, -0.291870, -3.306473, -13.084639, +7.413958 
1488854865.498071, 1488854865.498071, -1.126953, +0.291992, -0.291870, -3.306473, -13.084639, +7.413958 
1488854865.501804, 1488854865.501804, -1.126953, +0.291992, -0.291870, -3.306473, -13.084639, +6.010149 
1488854865.505587, 1488854865.505587, -1.126953, +0.291992, -0.278076, -5.290116, -13.450850, +6.010149 
1488854865.509328, 1488854865.509328, -1.064209, +0.241821, -0.278076, -5.290116, -13.450850, +6.010149 
1488854865.513167, 1488854865.513167, -1.064209, +0.241821, -0.278076, -5.290116, -13.450850, +4.758929 
1488854865.516925, 1488854865.516925, -1.064209, +0.241821, -0.278076, -4.984941, -12.611616, +4.758929 
1488854865.520660, 1488854865.520660, -1.064209, +0.241821, -0.278076, -4.984941, -12.611616, +4.758929 
1488854865.524557, 1488854865.524557, -1.064209, +0.241821, -0.278076, -4.862870, -11.497725, +3.645037 
1488854865.528304, 1488854865.528304, -1.014526, +0.239380, -0.342407, -4.862870, -11.497725, +3.645037 
1488854865.532042, 1488854865.532042, -1.014526, +0.239380, -0.342407, -4.862870, -11.497725, +3.645037 
1488854865.536050, 1488854865.536050, -1.014526, +0.239380, -0.342407, -4.115190, -10.322798, +2.729510 
1488854865.539988, 1488854865.539988, -1.014526, +0.239380, -0.342407, -4.115190, -10.322798, +2.729510 
1488854865.543903, 1488854865.543903, -1.014526, +0.239380, -0.342407, -4.115190, -10.322798, +2.729510 
1488854865.547652, 1488854865.547652, -1.064453, +0.229248, -0.346558, -4.176225, -9.712446, +1.539324 
1488854865.551389, 1488854865.551389, -1.064453, +0.229248, -0.346558, -4.176225, -9.712446, +1.539324 
1488854865.555291, 1488854865.555291, -1.064453, +0.229248, -0.346558, -4.176225, -9.712446, +1.539324 
1488854865.559219, 1488854865.559219, -1.064453, +0.229248, -0.346558, -5.595292, -10.978926, +1.585101 
1488854865.563206, 1488854865.563206, -1.064453, +0.229248, -0.346558, -5.595292, -10.978926, +1.585101 
1488854865.567142, 1488854865.567142, -1.104492, +0.201782, -0.329346, -5.595292, -10.978926, +2.225970 
1488854865.571077, 1488854865.571077, -1.104492, +0.201782, -0.329346, -7.395829, -13.099897, +2.225970 
1488854865.575024, 1488854865.575024, -1.104492, +0.201782, -0.329346, -7.395829, -13.099897, +2.225970 
1488854865.578956, 1488854865.578956, -1.104492, +0.201782, -0.329346, -6.083573, -13.130415, +2.653216 
1488854865.582898, 1488854865.582898, -1.104492, +0.201782, -0.329346, -6.083573, -13.130415, +2.653216 
1488854865.586655, 1488854865.586655, -1.100586, +0.276855, -0.323975, -6.083573, -13.130415, +2.653216 
1488854865.590630, 1488854865.590630, -1.100586, +0.276855, -0.323975, -6.068315, -12.565840, +3.294085 
1488854865.594897, 1488854865.594897, -1.100586, +0.276855, -0.323975, -6.068315, -12.565840, +3.294085 
1488854865.598831, 1488854865.598831, -1.100586, +0.276855, -0.323975, -6.068315, -12.565840, +3.294085 
1488854865.602765, 1488854865.602765, -1.100586, +0.276855, -0.323975, -8.555497, -11.879194, +1.554583 
1488854865.606717, 1488854865.606717, -1.113647, +0.266357, -0.305908, -8.555497, -11.879194, +1.554583 
1488854865.610661, 1488854865.610661, -1.113647, +0.266357, -0.305908, -8.555497, -11.879194, -0.429059 
1488854865.614598, 1488854865.614598, -1.113647, +0.266357, -0.305908, -10.829057, -12.001265, -0.429059 
1488854865.618542, 1488854865.618542, -1.113647, +0.266357, -0.305908, -10.829057, -12.001265, -0.429059 
1488854865.622485, 1488854865.622485, -1.113647, +0.266357, -0.305908, -12.293900, -11.848677, -1.680280 
1488854865.626253, 1488854865.626253, -1.104614, +0.244751, -0.267700, -12.293900, -11.848677, -1.680280 
1488854865.630107, 1488854865.630107, -1.104614, +0.244751, -0.267700, -12.293900, -11.848677, -1.680280 
1488854865.633884, 1488854865.633884, -1.104614, +0.244751, -0.267700, -12.583817, -12.840498, -0.932599 
1488854865.637634, 1488854865.637634, -1.104614, +0.244751, -0.267700, -12.583817, -12.840498, -0.932599 
1488854865.641382, 1488854865.641382, -1.104614, +0.244751, -0.267700, -12.583817, -12.840498, -0.932599 
1488854865.645304, 1488854865.645304, -1.079956, +0.221069, -0.288330, -12.003983, -14.488447, -0.245954 
1488854865.649056, 1488854865.649056, -1.079956, +0.221069, -0.288330, -12.003983, -14.488447, -0.245954 
1488854865.652804, 1488854865.652804, -1.079956, +0.221069, -0.288330, -12.003983, -14.488447, -0.245954 
1488854865.656839, 1488854865.656839, -1.079956, +0.221069, -0.288330, -11.225785, -15.983809, +0.364398 
1488854865.660780, 1488854865.660780, -1.079956, +0.221069, -0.288330, -11.225785, -15.983809, +0.364398 
1488854865.664742, 1488854865.664742, -1.079956, +0.206177, -0.272217, -11.225785, -15.983809, +0.364398 
1488854865.668676, 1488854865.668676, -1.038696, +0.206177, -0.272217, -11.744584, -16.700972, +1.096820 
1488854865.672620, 1488854865.672620, -1.038696, +0.206177, -0.272217, -11.744584, -16.700972, +1.096820 
1488854865.676394, 1488854865.676394, -1.038696, +0.206177, -0.272217, -11.744584, -16.700972, +1.417254 
1488854865.680143, 1488854865.680143, -1.038696, +0.206177, -0.272217, -13.026322, -17.738569, +1.417254 
1488854865.684241, 1488854865.684241, -1.038696, +0.237427, -0.292480, -13.026322, -17.738569, +1.417254 
1488854865.688133, 1488854865.688133, -1.040283, +0.221069, -0.292480, -11.744584, -18.516768, +1.279925 
1488854865.692451, 1488854865.692451, -1.040283, +0.221069, -0.292480, -11.744584, -18.516768, +1.279925 
1488854865.696273, 1488854865.696273, -1.040283, +0.221069, -0.292480, -11.744584, -18.516768, +1.279925 
1488854865.700016, 1488854865.700016, -1.040283, +0.221069, -0.292480, -10.890092, -17.875898, +1.005267 
1488854865.703758, 1488854865.703758, -1.040283, +0.221069, -0.198730, -10.890092, -17.875898, +1.005267 
1488854865.707495, 1488854865.707495, -1.093140, +0.268433, -0.198486, -10.890092, -17.875898, +1.005267 
1488854865.711234, 1488854865.711234, -1.093140, +0.268433, -0.198486, -7.411088, -17.097700, +1.539324 
1488854865.715015, 1488854865.715015, -1.093140, +0.268433, -0.198486, -7.411088, -17.097700, +1.539324 
1488854865.718752, 1488854865.718752, -1.093140, +0.268433, -0.198486, -7.411088, -17.097700, +1.539324 
1488854865.722490, 1488854865.722490, -1.093140, +0.268433, -0.198486, -7.701005, -17.128218, +1.020526 
1488854865.726232, 1488854865.726232, -1.076172, +0.251587, -0.184204, -7.701005, -17.128218, +1.020526 
1488854865.729960, 1488854865.729960, -1.076172, +0.251587, -0.184204, -7.701005, -17.128218, +1.020526 
1488854865.733805, 1488854865.733805, -1.076172, +0.251587, -0.184204, -7.487382, -17.097700, -0.215436 
1488854865.737549, 1488854865.737549, -1.076172, +0.251587, -0.184204, -7.487382, -17.097700, -0.215436 
1488854865.741294, 1488854865.741294, -1.076172, +0.251587, -0.184204, -7.487382, -17.097700, -0.780012 
1488854865.745227, 1488854865.745227, -1.034302, +0.258179, -0.238770, -7.472123, -16.533125, -0.780012 
1488854865.749171, 1488854865.749171, -1.034302, +0.258179, -0.238770, -7.472123, -16.533125, -0.780012 
1488854865.753119, 1488854865.753119, -1.034302, +0.258179, -0.238770, -9.028520, -16.487349, -2.031232 
1488854865.757052, 1488854865.757052, -1.034302, +0.258179, -0.238770, -9.028520, -16.487349, -2.031232 
1488854865.760992, 1488854865.760992, -1.034302, +0.258179, -0.238770, -9.028520, -16.487349, -2.031232 
1488854865.764939, 1488854865.764939, -1.026489, +0.277344, -0.234253, -10.005082, -17.402876, -2.962018 
1488854865.768878, 1488854865.768878, -1.026489, +0.277344, -0.234253, -10.005082, -17.402876, -2.962018 
1488854865.772816, 1488854865.772816, -1.026489, +0.277344, -0.234253, -10.005082, -17.402876, -2.962018 
1488854865.776579, 1488854865.776579, -1.026489, +0.277344, -0.234253, -11.134233, -18.272627, -3.496076 
1488854865.780430, 1488854865.780430, -1.026489, +0.277344, -0.234253, -11.134233, -18.272627, -3.496076 
1488854865.784299, 1488854865.784299, -1.062622, +0.239380, -0.208984, -11.134233, -18.272627, -3.496076 
1488854865.788242, 1488854865.788242, -1.062622, +0.239380, -0.208984, -11.622514, -19.294966, -2.763654 
1488854865.792178, 1488854865.792178, -1.062622, +0.239380, -0.208984, -11.622514, -19.294966, -2.763654 
1488854865.796140, 1488854865.796140, -1.062622, +0.239380, -0.208984, -11.622514, -15.388716, -1.741315 
1488854865.800209, 1488854865.800209, -1.062622, +0.239380, -0.208984, -10.981645, -18.669355, -1.741315 
1488854865.804268, 1488854865.804268, -1.090332, +0.254761, -0.185181, -10.981645, -18.669355, -1.741315 
1488854865.808212, 1488854865.808212, -1.090332, +0.254761, -0.185181, -10.798539, -17.448652, -1.909162 
1488854865.812146, 1488854865.812146, -1.090332, +0.254761, -0.185181, -10.798539, -17.448652, -1.909162 
1488854865.815947, 1488854865.815947, -1.090332, +0.254761, -0.185181, -10.798539, -17.448652, -1.909162 
1488854865.819693, 1488854865.819693, -1.090332, +0.254761, -0.185181, -11.302079, -16.075361, -2.504255 
1488854865.823508, 1488854865.823508, -1.090332, +0.292114, -0.178467, -11.302079, -16.075361, -2.504255 
1488854865.827455, 1488854865.827455, -1.104004, +0.292114, -0.178467, -11.302079, -16.075361, -2.504255 
1488854865.831394, 1488854865.831394, -1.104004, +0.292114, -0.178467, -13.133134, -14.961470, -3.984357 
1488854865.835235, 1488854865.835235, -1.104004, +0.292114, -0.178467, -13.133134, -14.961470, -3.984357 
1488854865.838979, 1488854865.838979, -1.104004, +0.292114, -0.178467, -13.133134, -14.961470, -3.984357 
1488854865.842727, 1488854865.842727, -1.104004, +0.292114, -0.185669, -17.146194, -15.022505, -5.617048 
1488854865.846517, 1488854865.846517, -1.083740, +0.235840, -0.185669, -17.146194, -15.022505, -5.617048 
1488854865.850271, 1488854865.850271, -1.083740, +0.235840, -0.185669, -17.146194, -15.022505, -6.853010 
1488854865.854170, 1488854865.854170, -1.083740, +0.235840, -0.185669, -19.511307, -16.838301, -6.853010 
1488854865.857925, 1488854865.857925, -1.083740, +0.235840, -0.185669, -19.511307, -16.838301, -6.853010 
1488854865.861681, 1488854865.861681, -1.083740, +0.235840, -0.185669, -19.511307, -19.981611, -7.203962 
1488854865.865515, 1488854865.865515, -1.057861, +0.274902, -0.154785, -18.733109, -19.981611, -7.203962 
1488854865.869268, 1488854865.869268, -1.057861, +0.274902, -0.154785, -18.733109, -19.981611, -7.203962 
1488854865.873025, 1488854865.873025, -1.057861, +0.274902, -0.154785, -18.641556, -23.796309, -6.685163 
1488854865.876974, 1488854865.876974, -1.057861, +0.274902, -0.154785, -18.641556, -23.796309, -6.685163 
1488854865.880914, 1488854865.880914, -1.057861, +0.274902, -0.154785, -18.641556, -23.796309, -6.685163 
1488854865.884892, 1488854865.884892, -1.018799, +0.204712, -0.336060, -20.060623, -25.184858, -5.113508 
1488854865.888835, 1488854865.888835, -1.018799, +0.204712, -0.336060, -20.060623, -25.184858, -5.113508 
1488854865.892769, 1488854865.892769, -1.018799, +0.204712, -0.336060, -20.060623, -25.184858, -5.113508 
1488854865.896725, 1488854865.896725, -1.018799, +0.204712, -0.336060, -17.039383, -22.224653, -2.138044 
1488854865.900668, 1488854865.900668, -1.018799, +0.204712, -0.336060, -17.039383, -22.224653, -2.138044 
1488854865.904539, 1488854865.904539, -1.136230, +0.305176, -0.241333, -17.039383, -22.224653, +1.768206 
1488854865.908281, 1488854865.908281, -1.136230, +0.305176, -0.241333, -13.880815, -19.340742, +0.761126 
1488854865.912033, 1488854865.912033, -1.136230, +0.305176, -0.241333, -13.880815, -19.340742, +0.761126 
1488854865.915934, 1488854865.915934, -1.136230, +0.305176, -0.241333, -13.880815, -15.434492, +1.386737 
1488854865.920175, 1488854865.920175, -1.136230, +0.305176, -0.241333, -13.438310, -18.089521, +1.386737 
1488854865.924306, 1488854865.924306, -1.136108, +0.241089, -0.225342, -13.438310, -18.089521, +1.386737 
1488854865.928352, 1488854865.928352, -1.136108, +0.241089, -0.225342, -14.399613, -17.463911, +1.051043 
1488854865.932296, 1488854865.932296, -1.136108, +0.241089, -0.225342, -14.399613, -17.463911, +1.051043 
1488854865.936276, 1488854865.936276, -1.136108, +0.241089, -0.225342, -14.399613, -17.463911, +1.051043 
1488854865.940226, 1488854865.940226, -1.136108, +0.241089, -0.225342, -12.003983, -17.509687, +2.271746 
1488854865.944184, 1488854865.944184, -1.091919, +0.189819, -0.142090, -12.003983, -17.509687, +2.271746 
1488854865.948124, 1488854865.948124, -1.091919, +0.189819, -0.142090, -12.003983, -17.509687, +4.240130 
1488854865.952070, 1488854865.952070, -1.091919, +0.189819, -0.142090, -8.189286, -19.615400, +4.240130 
1488854865.955866, 1488854865.955866, -1.091919, +0.189819, -0.142090, -8.189286, -19.615400, +4.240130 
1488854865.959615, 1488854865.959615, -1.091919, +0.189819, -0.142090, -8.189286, -21.904219, +5.323504 
1488854865.963367, 1488854865.963367, -1.069946, +0.296509, -0.115112, -6.495561, -21.904219, +5.323504 
1488854865.967110, 1488854865.967110, -1.069946, +0.296509, -0.115112, -6.495561, -21.904219, +5.323504 
1488854865.970862, 1488854865.970862, -1.069946, +0.296509, -0.115112, -7.060136, -24.437178, +5.521868 
1488854865.974753, 1488854865.974753, -1.069946, +0.296509, -0.115112, -7.060136, -24.437178, +5.521868 
1488854865.978493, 1488854865.978493, -1.069946, +0.296509, -0.115112, -7.060136, -24.437178, +5.521868 
1488854865.982234, 1488854865.982234, -1.069946, +0.218506, -0.293457, -12.934770, -29.991377, +4.942034 
1488854865.986256, 1488854865.986256, -1.031128, +0.218506, -0.293457, -12.934770, -29.991377, +4.942034 
1488854865.990204, 1488854865.990204, -1.031128, +0.218506, -0.293457, -12.934770, -29.991377, +4.942034 
1488854865.994158, 1488854865.994158, -1.031128, +0.218506, -0.293457, -18.900955, -32.722698, +4.850482 
1488854865.998101, 1488854865.998101, -1.031128, +0.218506, -0.293457, -18.900955, -32.722698, +4.850482 
1488854866.002046, 1488854866.002046, -1.031128, +0.358643, -0.270752, -18.900955, -32.722698, +4.850482 
1488854866.005868, 1488854866.005868, -1.204590, +0.358643, -0.270752, -11.714067, -27.443159, +6.834124 
1488854866.009616, 1488854866.009616, -1.204590, +0.358643, -0.270752, -11.714067, -27.443159, +6.834124 
1488854866.013391, 1488854866.013391, -1.204590, +0.358643, -0.270752, -11.714067, -27.443159, +6.834124 
1488854866.017330, 1488854866.017330, -1.204590, +0.358643, -0.270752, -12.904252, -26.725996, +8.253192 
1488854866.021278, 1488854866.021278, -1.204590, +0.358643, -0.152954, -12.904252, -26.725996, +8.253192 
1488854866.025227, 1488854866.025227, -1.261963, +0.284180, -0.152954, -16.383255, -27.321089, +7.322405 
1488854866.029174, 1488854866.029174, -1.261963, +0.284180, -0.152954, -16.383255, -27.321089, +7.322405 
1488854866.033127, 1488854866.033127, -1.261963, +0.284180, -0.152954, -16.383255, -27.321089, +7.322405 
1488854866.037070, 1488854866.037070, -1.261963, +0.284180, -0.152954, -19.251907, -28.267134, +6.254290 
1488854866.041106, 1488854866.041106, -1.261963, +0.284180, -0.110229, -19.251907, -28.267134, +6.254290 
1488854866.045495, 1488854866.045495, -1.184814, +0.135376, -0.110229, -19.251907, -28.267134, +6.254290 
1488854866.049446, 1488854866.049446, -1.184814, +0.135376, -0.110229, -19.221390, -29.731977, +6.788348 
1488854866.053380, 1488854866.053380, -1.184814, +0.135376, -0.110229, -19.221390, -29.731977, +6.788348 
1488854866.057139, 1488854866.057139, -1.184814, +0.135376, -0.110229, -19.221390, -29.731977, +7.734393 
1488854866.060887, 1488854866.060887, -1.184814, +0.135376, -0.110229, -14.033402, -31.028975, +7.734393 
1488854866.064732, 1488854866.064732, -1.209717, +0.155273, -0.096558, -14.033402, -31.028975, +7.734393 
1488854866.068675, 1488854866.068675, -1.209717, +0.155273, -0.096558, -6.220902, -33.561932, +8.924579 
1488854866.072613, 1488854866.072613, -1.209717, +0.155273, -0.096558, -8.845414, -33.561932, +8.924579 
1488854866.076392, 1488854866.076392, -1.209717, +0.155273, -0.096558, -8.845414, -33.561932, +8.924579 
1488854866.080246, 1488854866.080246, -1.209717, +0.155273, -0.096558, -6.526078, -34.370647, +10.130023 
1488854866.084044, 1488854866.084044, -1.175781, +0.328125, -0.146484, -6.526078, -34.370647, +10.130023 
1488854866.087791, 1488854866.087791, -1.175781, +0.328125, -0.146484, -6.526078, -34.370647, +10.130023 
1488854866.091542, 1488854866.091542, -1.175781, +0.328125, -0.146484, -8.647050, -35.560833, +10.664081 
1488854866.095499, 1488854866.095499, -1.175781, +0.328125, -0.146484, -8.647050, -35.560833, +10.664081 
1488854866.099242, 1488854866.099242, -1.175781, +0.328125, -0.146484, -8.647050, -35.560833, +10.664081 
1488854866.103116, 1488854866.103116, -1.107788, +0.250854, -0.147461, -14.155473, -40.046917, +9.412860 
1488854866.106866, 1488854866.106866, -1.107788, +0.250854, -0.147461, -14.155473, -40.046917, +9.412860 
1488854866.110618, 1488854866.110618, -1.107788, +0.250854, -0.147461, -14.155473, -40.046917, +9.412860 
1488854866.114481, 1488854866.114481, -1.107788, +0.250854, -0.147461, -13.117875, -42.350994, +9.901141 
1488854866.118423, 1488854866.118423, -1.107788, +0.250854, -0.147461, -13.117875, -42.350994, +9.901141 
1488854866.122367, 1488854866.122367, -1.196777, +0.413086, -0.249146, -13.117875, -42.350994, +11.762713 
1488854866.126312, 1488854866.126312, -1.196777, +0.413086, -0.249146, -7.685746, -40.519939, +11.762713 
1488854866.130259, 1488854866.130259, -1.196777, +0.413086, -0.249146, -7.685746, -40.519939, +11.762713 
1488854866.134144, 1488854866.134144, -1.196777, +0.413086, -0.249146, -9.348954, -39.268719, +12.403583 
1488854866.137888, 1488854866.137888, -1.196777, +0.413086, -0.249146, -9.348954, -39.268719, +12.403583 
1488854866.141638, 1488854866.141638, -1.236084, +0.413330, -0.139648, -9.348954, -39.268719, +12.403583 
1488854866.145425, 1488854866.145425, -1.236084, +0.413330, -0.139648, -15.833940, -38.688885, +9.885882 
1488854866.149172, 1488854866.149172, -1.236084, +0.413330, -0.139648, -15.833940, -38.688885, +9.885882 
1488854866.152914, 1488854866.152914, -1.236084, +0.413330, -0.139648, -15.833940, -38.688885, +9.885882 
1488854866.156905, 1488854866.156905, -1.236084, +0.413330, -0.139648, -21.540726, -38.017498, +6.971453 
1488854866.160900, 1488854866.160900, -1.173584, +0.249634, -0.158325, -21.540726, -38.017498, +6.971453 
1488854866.165274, 1488854866.165274, -1.181519, +0.249634, -0.158325, -21.540726, -38.017498, +6.971453 
1488854866.169217, 1488854866.169217, -1.181519, +0.249634, -0.158325, -22.730911, -37.559734, +4.880999 
1488854866.173152, 1488854866.173152, -1.181519, +0.249634, -0.158325, -22.730911, -37.559734, +4.880999 
1488854866.177097, 1488854866.177097, -1.181519, +0.249634, -0.158325, -22.730911, -37.559734, +5.125140 
1488854866.181037, 1488854866.181037, -1.229736, +0.274170, -0.105103, -18.809402, -38.215862, +5.125140 
1488854866.185000, 1488854866.185000, -1.229736, +0.274170, -0.105103, -18.809402, -38.215862, +5.125140 
1488854866.188935, 1488854866.188935, -1.229736, +0.274170, -0.105103, -18.153275, -39.467083, +5.506609 
1488854866.192882, 1488854866.192882, -1.229736, +0.274170, -0.105103, -18.153275, -39.467083, +5.506609 
1488854866.196633, 1488854866.196633, -1.229736, +0.274170, -0.105103, -18.153275, -39.467083, +5.506609 
1488854866.200384, 1488854866.200384, -1.229736, +0.361328, -0.097412, -19.877518, -41.298138, +4.987811 
1488854866.204144, 1488854866.204144, -1.254883, +0.361328, -0.097412, -19.877518, -41.298138, +4.987811 
1488854866.207888, 1488854866.207888, -1.254883, +0.361328, -0.097412, -19.877518, -41.298138, +4.987811 
1488854866.211647, 1488854866.211647, -1.254883, +0.361328, -0.097412, -24.455154, -43.327557, +3.934954 
1488854866.215534, 1488854866.215534, -1.254883, +0.361328, -0.097412, -24.455154, -43.327557, +3.934954 
1488854866.219285, 1488854866.219285, -1.254883, +0.361328, -0.097412, -24.455154, -43.327557, +3.934954 
1488854866.223127, 1488854866.223127, -1.213135, +0.287964, -0.095703, -32.099808, -44.929729, +3.294085 
1488854866.227073, 1488854866.227073, -1.213135, +0.287964, -0.095703, -32.099808, -44.929729, +3.294085 
1488854866.231126, 1488854866.231126, -1.213135, +0.287964, -0.095703, -32.099808, -44.929729, -0.612165 
1488854866.235079, 1488854866.235079, -1.213135, +0.287964, -0.095703, -35.578812, -46.959148, +2.805804 
1488854866.239020, 1488854866.239020, -1.213135, +0.287964, -0.095703, -35.578812, -46.959148, +2.805804 
1488854866.242952, 1488854866.242952, -1.179077, +0.201050, -0.097168, -35.685623, -49.080120, +3.416155 
1488854866.246741, 1488854866.246741, -1.179077, +0.201050, -0.097168, -35.685623, -49.080120, +3.416155 
1488854866.250481, 1488854866.250481, -1.179077, +0.201050, -0.097168, -35.685623, -49.080120, +3.416155 
1488854866.254324, 1488854866.254324, -1.179077, +0.201050, -0.097168, -32.664383, -52.681194, +6.879900 
1488854866.258267, 1488854866.258267, -1.179077, +0.201050, -0.097168, -32.664383, -52.681194, +6.879900 
1488854866.262210, 1488854866.262210, -1.213745, +0.135742, -0.056763, -32.664383, -52.681194, +6.879900 
1488854866.266168, 1488854866.266168, -1.213745, +0.135742, -0.056763, -28.834427, -56.358562, +11.106586 
1488854866.270107, 1488854866.270107, -1.213745, +0.135742, -0.056763, -28.834427, -56.358562, +11.106586 
1488854866.274101, 1488854866.274101, -1.213745, +0.135742, -0.056763, -28.834427, -56.358562, +11.106586 
1488854866.278046, 1488854866.278046, -1.213745, +0.135742, -0.056763, -25.706375, -58.586346, +14.005755 
1488854866.282163, 1488854866.282163, -1.222046, +0.139526, -0.017334, -25.706375, -58.586346, +14.005755 
1488854866.286220, 1488854866.286220, -1.222046, +0.139526, -0.017334, -25.706375, -61.317669, +16.218279 
1488854866.290167, 1488854866.290167, -1.222046, +0.139526, -0.017334, -25.355423, -61.317669, +16.218279 
1488854866.294083, 1488854866.294083, -1.222046, +0.139526, -0.017334, -25.355423, -61.317669, +16.218279 
1488854866.297833, 1488854866.297833, -1.222046, +0.139526, -0.017334, -27.354324, -64.522018, +17.133806 
1488854866.301589, 1488854866.301589, -1.191162, +0.120117, -0.003296, -27.354324, -64.522018, +17.133806 
1488854866.305509, 1488854866.305509, -1.191162, +0.120117, -0.003296, -27.354324, -64.522018, +17.133806 
1488854866.309465, 1488854866.309465, -1.191162, +0.120117, -0.003296, -31.016434, -67.955246, +17.973040 
1488854866.313403, 1488854866.313403, -1.191162, +0.120117, -0.003296, -31.016434, -67.955246, +17.973040 
1488854866.317154, 1488854866.317154, -1.191162, +0.120117, -0.003296, -31.016434, -67.955246, +17.973040 
1488854866.320914, 1488854866.320914, -1.149780, +0.083252, -0.030518, -33.320511, -70.396652, +18.446062 
1488854866.324670, 1488854866.324670, -1.149780, +0.083252, -0.030518, -33.320511, -70.396652, +18.446062 
1488854866.328438, 1488854866.328438, -1.149780, +0.083252, -0.030518, -33.320511, -70.396652, +18.446062 
1488854866.332187, 1488854866.332187, -1.149780, +0.083252, -0.030518, -34.663284, -72.975388, +19.895647 
1488854866.336098, 1488854866.336098, -1.149780, +0.083252, -0.030518, -34.663284, -72.975388, +19.895647 
1488854866.339849, 1488854866.339849, -1.195923, +0.159790, +0.016479, -34.663284, -72.975388, +19.895647 
1488854866.343763, 1488854866.343763, -1.195923, +0.159790, +0.016479, -36.280716, -76.622238, +22.794817 
1488854866.347521, 1488854866.347521, -1.195923, +0.159790, +0.016479, -36.280716, -76.622238, +22.794817 
1488854866.351273, 1488854866.351273, -1.195923, +0.159790, +0.016479, -36.280716, -76.622238, +24.274920 
1488854866.355051, 1488854866.355051, -1.195923, +0.159790, +0.016479, -39.759720, -79.399338, +24.274920 
1488854866.358793, 1488854866.358793, -1.195923, +0.159790, -0.056763, -39.759720, -79.399338, +24.274920 
1488854866.362535, 1488854866.362535, -1.218628, +0.148071, -0.056763, -43.665970, -81.642380, +26.258562 
1488854866.366350, 1488854866.366350, -1.218628, +0.148071, -0.056763, -43.101395, -81.642380, +26.258562 
1488854866.370097, 1488854866.370097, -1.218628, +0.148071, -0.056763, -43.101395, -81.642380, +26.258562 
1488854866.373888, 1488854866.373888, -1.218628, +0.148071, -0.056763, -44.428909, -85.197678, +29.600237 
1488854866.377746, 1488854866.377746, -1.218628, +0.148071, -0.056763, -44.428909, -85.197678, +29.600237 
1488854866.381497, 1488854866.381497, -1.282959, +0.101196, -0.072388, -44.428909, -85.197678, +29.600237 
1488854866.385256, 1488854866.385256, -1.282959, +0.101196, -0.072388, -42.918289, -87.761154, +33.781147 
1488854866.389007, 1488854866.389007, -1.282959, +0.101196, -0.072388, -42.918289, -87.761154, +33.781147 
1488854866.392753, 1488854866.392753, -1.282959, +0.101196, -0.072388, -42.918289, -87.761154, +33.781147 
1488854866.396553, 1488854866.396553, -1.282959, +0.101196, -0.072388, -41.071976, -89.470139, +38.419819 
1488854866.400512, 1488854866.400512, -1.344727, +0.216309, -0.041748, -41.071976, -89.470139, +38.419819 
1488854866.404545, 1488854866.404545, -1.344727, +0.216309, -0.041748, -41.071976, -89.470139, +38.419819 
1488854866.408476, 1488854866.408476, -1.344727, +0.216309, -0.041748, -41.102493, -91.652145, +43.623066 
1488854866.412391, 1488854866.412391, -1.344727, +0.216309, -0.041748, -41.102493, -91.652145, +43.623066 
1488854866.416321, 1488854866.416321, -1.344727, +0.216309, -0.041748, -41.102493, -91.652145, +49.528217 
1488854866.420238, 1488854866.420238, -1.379639, +0.272217, -0.041504, -40.843094, -93.834152, +49.528217 
1488854866.424170, 1488854866.424170, -1.379639, +0.272217, -0.041504, -40.843094, -93.834152, +49.528217 
1488854866.428055, 1488854866.428055, -1.379639, +0.272217, -0.041504, -42.521561, -95.558395, +54.319477 
1488854866.431939, 1488854866.431939, -1.379639, +0.272217, -0.041504, -42.521561, -95.558395, +54.319477 
1488854866.435838, 1488854866.435838, -1.379639, +0.272217, -0.041504, -42.521561, -95.558395, +54.319477 
1488854866.439587, 1488854866.439587, -1.397339, +0.325684, -0.050659, -43.711746, -95.634689, +57.752705 
1488854866.443341, 1488854866.443341, -1.397339, +0.325684, -0.050659, -43.711746, -95.634689, +57.752705 
1488854866.447094, 1488854866.447094, -1.397339, +0.325684, -0.050659, -43.711746, -95.634689, +57.752705 
1488854866.450852, 1488854866.450852, -1.397339, +0.325684, -0.050659, -49.708450, -94.536057, +60.667133 
1488854866.454756, 1488854866.454756, -1.397339, +0.325684, -0.050659, -49.708450, -94.536057, +60.667133 
1488854866.458510, 1488854866.458510, -1.397339, +0.538086, +0.003662, -49.708450, -94.536057, +60.667133 
1488854866.462269, 1488854866.462269, -1.342407, +0.538086, +0.003662, -59.382523, -92.018356, +62.086201 
1488854866.466350, 1488854866.466350, -1.342407, +0.538086, +0.003662, -59.382523, -92.018356, +62.086201 
1488854866.470291, 1488854866.470291, -1.342407, +0.538086, +0.003662, -59.382523, -92.018356, +62.086201 
1488854866.474282, 1488854866.474282, -1.342407, +0.538086, +0.003662, -70.185745, -88.310471, +59.766865 
1488854866.478233, 1488854866.478233, -1.342407, +0.475586, +0.017334, -70.185745, -88.310471, +59.766865 
1488854866.482172, 1488854866.482172, -1.232910, +0.475586, +0.017334, -70.185745, -84.038010, +55.708027 
1488854866.486129, 1488854866.486129, -1.232910, +0.475586, +0.017334, -80.348099, -84.038010, +55.708027 
1488854866.490075, 1488854866.490075, -1.232910, +0.475586, +0.017334, -80.348099, -84.038010, +55.708027 
1488854866.493975, 1488854866.493975, -1.232910, +0.475586, +0.017334, -85.444534, -78.392258, +51.008320 
1488854866.497731, 1488854866.497731, -1.232910, +0.475586, +0.081665, -85.444534, -78.392258, +51.008320 
1488854866.501479, 1488854866.501479, -1.029663, +0.429077, +0.081665, -85.444534, -78.392258, +51.008320 
1488854866.505363, 1488854866.505363, -1.029663, +0.429077, +0.081665, -86.909378, -73.417892, +46.796894 
1488854866.509304, 1488854866.509304, -1.029663, +0.429077, +0.081665, -86.909378, -73.417892, +46.796894 
1488854866.513265, 1488854866.513265, -1.029663, +0.429077, +0.081665, -86.909378, -73.417892, +46.796894 
1488854866.517208, 1488854866.517208, -1.029663, +0.429077, +0.144165, -87.885941, -67.604294, +42.112446 
1488854866.521263, 1488854866.521263, -0.718140, +0.495972, +0.155029, -87.885941, -67.604294, +42.112446 
1488854866.525468, 1488854866.525468, -0.718140, +0.495972, +0.155029, -87.885941, -59.791790, +38.496113 
1488854866.529412, 1488854866.529412, -0.718140, +0.495972, +0.155029, -84.361160, -59.913860, +38.496113 
1488854866.533374, 1488854866.533374, -0.718140, +0.495972, +0.155029, -84.361160, -59.913860, +38.496113 
1488854866.537315, 1488854866.537315, -0.718140, +0.495972, +0.029053, -80.744827, -49.827801, +38.297749 
1488854866.541266, 1488854866.541266, -0.709717, +0.258545, +0.029053, -80.744827, -49.827801, +38.297749 
1488854866.545113, 1488854866.545113, -0.709717, +0.258545, +0.029053, -80.744827, -49.827801, +38.297749 
1488854866.548866, 1488854866.548866, -0.709717, +0.258545, +0.029053, -72.688187, -30.754316, +27.601336 
1488854866.552620, 1488854866.552620, -0.709717, +0.258545, +0.029053, -72.688187, -30.754316, +27.601336 
1488854866.556378, 1488854866.556378, -0.709717, +0.258545, +0.029053, -72.688187, -30.754316, +27.601336 
1488854866.560128, 1488854866.560128, -0.600098, +0.000366, -0.056152, -61.091507, -14.824141, +12.022113 
1488854866.563884, 1488854866.563884, -0.600098, +0.000366, -0.056152, -61.091507, -14.824141, +12.022113 
1488854866.567644, 1488854866.567644, -0.600098, +0.000366, -0.056152, -61.091507, -14.824141, +12.022113 
1488854866.571395, 1488854866.571395, -0.600098, +0.000366, -0.056152, -52.470291, -6.569135, +0.333880 
1488854866.575309, 1488854866.575309, -0.600098, +0.000366, -0.056152, -52.470291, -6.569135, +0.333880 
1488854866.579063, 1488854866.579063, -0.557861, -0.078857, +0.093384, -52.470291, -6.569135, +0.333880 
1488854866.582807, 1488854866.582807, -0.557861, -0.078857, +0.093384, -49.662674, +0.221026, -12.590314 
1488854866.586846, 1488854866.586846, -0.557861, -0.078857, +0.093384, -49.662674, +0.221026, -12.590314 
1488854866.590786, 1488854866.590786, -0.557861, -0.078857, +0.093384, -49.662674, +11.939775, -22.630598 
1488854866.594672, 1488854866.594672, -0.557861, -0.078857, +0.093384, -48.594559, +8.262407, -22.630598 
1488854866.598419, 1488854866.598419, -0.503174, -0.025024, +0.067993, -48.594559, +8.262407, -22.630598 
1488854866.602168, 1488854866.602168, -0.503174, -0.025024, +0.067993, -44.688309, +19.599688, -28.184797 
1488854866.606124, 1488854866.606124, -0.503174, -0.025024, +0.067993, -43.879593, +19.599688, -28.184797 
1488854866.610068, 1488854866.610068, -0.503174, -0.025024, +0.067993, -43.879593, +19.599688, -28.184797 
1488854866.614068, 1488854866.614068, -0.503174, -0.025024, +0.067993, -35.838211, +31.074297, -32.167339 
1488854866.618013, 1488854866.618013, -0.555054, -0.014771, +0.191040, -35.838211, +31.074297, -32.167339 
1488854866.621959, 1488854866.621959, -0.555054, -0.014771, +0.191040, -35.838211, +31.074297, -32.167339 
1488854866.625922, 1488854866.625922, -0.555054, -0.014771, +0.191040, -25.004471, +41.297688, -36.348248 
1488854866.629870, 1488854866.629870, -0.555054, -0.014771, +0.191040, -25.004471, +41.297688, -36.348248 
1488854866.633825, 1488854866.633825, -0.555054, -0.014771, +0.191040, -25.004471, +41.297688, -36.348248 
1488854866.637766, 1488854866.637766, -0.518921, -0.010132, +0.165894, -9.486283, +52.970661, -39.064312 
1488854866.641808, 1488854866.641808, -0.518921, -0.010132, +0.165894, -9.486283, +52.970661, -39.064312 
1488854866.645813, 1488854866.645813, -0.518921, -0.010132, +0.165894, +7.786666, +67.863235, -41.063213 
1488854866.649573, 1488854866.649573, -0.518921, -0.010132, +0.165894, +7.786666, +67.863235, -41.063213 
1488854866.653332, 1488854866.653332, -0.518921, -0.010132, +0.165894, +7.786666, +67.863235, -41.063213 
1488854866.657073, 1488854866.657073, -0.550171, +0.018311, +0.108887, +22.007858, +83.350906, -42.756939 
1488854866.660822, 1488854866.660822, -0.549438, +0.018311, +0.108887, +22.007858, +83.350906, -42.756939 
1488854866.664638, 1488854866.664638, -0.549438, +0.018311, +0.108887, +22.007858, +83.350906, -42.756939 
1488854866.668387, 1488854866.668387, -0.549438, +0.018311, +0.108887, +32.795822, +96.656570, -44.816875 
1488854866.672135, 1488854866.672135, -0.549438, +0.018311, +0.108887, +32.795822, +96.656570, -44.816875 
1488854866.675998, 1488854866.675998, -0.549438, +0.018311, +0.077637, +32.795822, +96.656570, -44.816875 
1488854866.679742, 1488854866.679742, -0.597656, +0.092651, +0.067871, +39.677536, +108.619461, -48.066998 
1488854866.683510, 1488854866.683510, -0.597656, +0.092651, +0.067871, +39.677536, +108.619461, -48.066998 
1488854866.687257, 1488854866.687257, -0.597656, +0.092651, +0.067871, +39.677536, +108.619461, -48.066998 
1488854866.690996, 1488854866.690996, -0.597656, +0.092651, +0.067871, +42.775070, +117.484818, -52.492046 
1488854866.694910, 1488854866.694910, -0.597656, +0.092651, +0.067871, +42.775070, +117.484818, -52.492046 
1488854866.698646, 1488854866.698646, -0.684204, +0.134888, +0.097168, +42.775070, +117.484818, -52.492046 
1488854866.702393, 1488854866.702393, -0.684204, +0.134888, +0.097168, +44.133102, +124.854813, -56.901836 
1488854866.706461, 1488854866.706461, -0.684204, +0.134888, +0.097168, +44.133102, +124.854813, -56.901836 
1488854866.710411, 1488854866.710411, -0.684204, +0.134888, +0.097168, +44.133102, +124.854813, -61.113262 
1488854866.714376, 1488854866.714376, -0.684204, +0.134888, +0.097168, +46.406662, +131.385574, -61.113262 
1488854866.718322, 1488854866.718322, -0.804565, +0.162964, +0.155396, +46.406662, +131.385574, -61.113262 
1488854866.722268, 1488854866.722268, -0.804565, +0.162964, +0.155396, +51.243698, +136.695633, -65.507797 
1488854866.726223, 1488854866.726223, -0.804565, +0.162964, +0.155396, +51.243698, +136.695633, -65.507797 
1488854866.730169, 1488854866.730169, -0.804565, +0.162964, +0.155396, +51.243698, +136.695633, -65.507797 
1488854866.734123, 1488854866.734123, -0.804565, +0.162964, +0.155396, +55.806076, +142.783890, -69.642929 
1488854866.738073, 1488854866.738073, -0.908691, +0.225342, +0.082642, +55.806076, +142.783890, -69.642929 
1488854866.742014, 1488854866.742014, -0.908691, +0.225342, +0.082642, +55.806076, +142.783890, -69.642929 
1488854866.745829, 1488854866.745829, -0.908691, +0.225342, +0.082642, +59.498703, +150.230179, -73.625473 
1488854866.749583, 1488854866.749583, -0.908691, +0.225342, +0.082642, +59.498703, +150.230179, -73.625473 
1488854866.753336, 1488854866.753336, -0.908691, +0.225342, +0.082642, +59.498703, +150.230179, -73.625473 
1488854866.757088, 1488854866.757088, -1.049316, +0.300049, +0.006592, +60.002243, +156.318436, -77.882675 
1488854866.761069, 1488854866.761069, -1.049316, +0.300049, +0.006592, +60.002243, +156.318436, -77.882675 
1488854866.765161, 1488854866.765161, -1.049316, +0.300049, +0.006592, +60.002243, +160.224686, -81.621078 
1488854866.769112, 1488854866.769112, -1.049316, +0.300049, +0.006592, +55.638229, +158.408890, -81.621078 
1488854866.773058, 1488854866.773058, -1.049316, +0.300049, +0.006592, +55.638229, +158.408890, -81.621078 
1488854866.777014, 1488854866.777014, -1.167114, +0.278320, -0.000610, +49.992477, +159.812698, -84.504990 
1488854866.780956, 1488854866.780956, -1.167114, +0.278320, -0.000610, +49.992477, +159.812698, -84.504990 
1488854866.784919, 1488854866.784919, -1.167114, +0.278320, -0.000610, +49.992477, +159.812698, -84.504990 
1488854866.788867, 1488854866.788867, -1.167114, +0.278320, -0.000610, +46.788132, +161.079178, -86.290268 
1488854866.792812, 1488854866.792812, -1.167114, +0.278320, -0.000610, +46.788132, +161.079178, -86.290268 
1488854866.796577, 1488854866.796577, -1.276123, +0.263306, +0.010132, +46.788132, +161.079178, -86.290268 
1488854866.800334, 1488854866.800334, -1.276123, +0.263306, +0.010132, +46.574509, +162.635574, -86.763290 
1488854866.804090, 1488854866.804090, -1.276123, +0.263306, +0.010132, +46.574509, +162.635574, -86.763290 
1488854866.807842, 1488854866.807842, -1.276123, +0.263306, +0.010132, +46.574509, +162.635574, -86.763290 
1488854866.811593, 1488854866.811593, -1.276123, +0.263306, +0.010132, +47.673141, +163.047562, -86.397079 
1488854866.815496, 1488854866.815496, -1.276123, +0.324341, +0.010010, +47.673141, +163.047562, -86.397079 
1488854866.819250, 1488854866.819250, -1.353149, +0.324341, +0.010010, +47.673141, +163.047562, -84.840683 
1488854866.823161, 1488854866.823161, -1.353149, +0.324341, +0.010010, +50.618088, +164.481888, -84.840683 
1488854866.827101, 1488854866.827101, -1.353149, +0.324341, +0.010010, +50.618088, +164.481888, -84.840683 
1488854866.831030, 1488854866.831030, -1.353149, +0.324341, +0.010010, +55.409348, +166.953812, -82.200912 
1488854866.834972, 1488854866.834972, -1.353149, +0.324341, -0.056763, +55.409348, +166.953812, -82.200912 
1488854866.838905, 1488854866.838905, -1.380615, +0.353394, -0.056763, +55.409348, +166.953812, -82.200912 
1488854866.842824, 1488854866.842824, -1.380615, +0.353394, -0.056763, +59.864914, +170.539627, -79.484848 
1488854866.846758, 1488854866.846758, -1.380615, +0.353394, -0.056763, +59.864914, +170.539627, -79.484848 
1488854866.850682, 1488854866.850682, -1.380615, +0.353394, -0.056763, +59.864914, +170.539627, -79.484848 
1488854866.854545, 1488854866.854545, -1.380615, +0.353394, -0.150513, +63.404953, +173.713455, -76.295761 
1488854866.858292, 1488854866.858292, -1.435547, +0.349121, -0.153442, +63.404953, +173.713455, -76.295761 
1488854866.862046, 1488854866.862046, -1.435547, +0.349121, -0.153442, +63.404953, +173.713455, -76.295761 
1488854866.865844, 1488854866.865844, -1.435547, +0.349121, -0.153442, +65.022385, +175.376663, -73.335556 
1488854866.869581, 1488854866.869581, -1.435547, +0.349121, -0.153442, +65.022385, +175.376663, -73.335556 
1488854866.873461, 1488854866.873461, -1.435547, +0.349121, -0.153442, +65.022385, +175.376663, -69.429306 
1488854866.877212, 1488854866.877212, -1.424316, +0.325073, -0.236084, +64.381516, +176.170120, -70.665268 
1488854866.881062, 1488854866.881062, -1.424316, +0.325073, -0.236084, +64.381516, +176.170120, -70.665268 
1488854866.885016, 1488854866.885016, -1.424316, +0.325073, -0.236084, +64.381516, +176.643143, -69.002060 
1488854866.888759, 1488854866.888759, -1.424316, +0.325073, -0.236084, +61.604416, +176.643143, -69.002060 
1488854866.892502, 1488854866.892502, -1.424316, +0.325073, -0.236084, +61.604416, +176.643143, -69.002060 
1488854866.896244, 1488854866.896244, -1.422974, +0.309448, -0.295898, +55.989182, +176.505814, -67.964462 
1488854866.899994, 1488854866.899994, -1.422974, +0.309448, -0.295898, +55.989182, +176.505814, -67.964462 
1488854866.903733, 1488854866.903733, -1.422974, +0.309448, -0.295898, +55.989182, +176.505814, -67.964462 
1488854866.907476, 1488854866.907476, -1.422974, +0.309448, -0.295898, +46.803391, +176.276932, -68.330673 
1488854866.911218, 1488854866.911218, -1.422974, +0.309448, -0.295898, +46.803391, +176.276932, -68.330673 
1488854866.915018, 1488854866.915018, -1.454224, +0.276733, -0.260864, +46.803391, +176.276932, -68.330673 
1488854866.918771, 1488854866.918771, -1.455322, +0.276733, -0.260864, +35.023605, +175.636063, -69.703964 
1488854866.922517, 1488854866.922517, -1.455322, +0.276733, -0.260864, +35.023605, +175.636063, -69.703964 
1488854866.926275, 1488854866.926275, -1.455322, +0.276733, -0.260864, +35.023605, +175.636063, -69.703964 
1488854866.930022, 1488854866.930022, -1.455322, +0.276733, -0.260864, +23.701584, +171.760330, -71.489243 
1488854866.933815, 1488854866.933815, -1.455322, +0.276733, -0.073364, +23.701584, +171.760330, -71.489243 
1488854866.937655, 1488854866.937655, -1.598633, +0.265137, -0.065063, +23.701584, +171.760330, -71.489243 
1488854866.941410, 1488854866.941410, -1.598633, +0.265137, -0.065063, +13.234054, +163.886795, -72.740463 
1488854866.945406, 1488854866.945406, -1.598633, +0.265137, -0.065063, +13.234054, +163.886795, -72.740463 
1488854866.949151, 1488854866.949151, -1.598633, +0.265137, -0.065063, +13.234054, +163.886795, -72.740463 
1488854866.952898, 1488854866.952898, -1.598633, +0.265137, -0.065063, +9.831344, +154.395828, -71.428207 
1488854866.956715, 1488854866.956715, -1.585205, +0.313354, -0.038208, +9.831344, +154.395828, -71.428207 
1488854866.961092, 1488854866.961092, -1.585205, +0.313354, -0.038208, +9.831344, +146.583328, -66.224960 
1488854866.964885, 1488854866.964885, -1.585205, +0.313354, -0.038208, +14.073287, +146.323929, -66.224960 
1488854866.968731, 1488854866.968731, -1.585205, +0.313354, -0.038208, +14.073287, +146.323929, -66.224960 
1488854866.972472, 1488854866.972472, -1.585205, +0.313354, -0.038208, +24.800217, +142.555008, -59.007549 
1488854866.976226, 1488854866.976226, -1.424438, +0.239990, -0.250977, +24.800217, +142.555008, -59.007549 
1488854866.979969, 1488854866.979969, -1.424438, +0.239990, -0.250977, +24.800217, +142.555008, -59.007549 
1488854866.983720, 1488854866.983720, -1.424438, +0.239990, -0.250977, +34.703171, +140.342484, -52.400494 
1488854866.987463, 1488854866.987463, -1.424438, +0.239990, -0.250977, +34.703171, +140.342484, -52.400494 
1488854866.991213, 1488854866.991213, -1.424438, +0.239990, -0.250977, +34.703171, +140.342484, -52.400494 
1488854866.995017, 1488854866.995017, -1.402588, +0.105835, -0.236084, +40.074265, +133.903275, -47.288799 
1488854866.998760, 1488854866.998760, -1.402588, +0.105835, -0.236084, +40.074265, +133.903275, -47.288799 
1488854867.002503, 1488854867.002503, -1.402588, +0.105835, -0.236084, +40.074265, +133.903275, -47.288799 
1488854867.006294, 1488854867.006294, -1.402588, +0.105835, -0.236084, +41.859543, +125.388870, -41.902447 
1488854867.010039, 1488854867.010039, -1.402588, +0.105835, -0.236084, +41.859543, +125.388870, -41.902447 
1488854867.013945, 1488854867.013945, -1.402588, +0.120239, -0.199951, +41.859543, +125.388870, -41.902447 
1488854867.017685, 1488854867.017685, -1.312622, +0.120239, -0.199951, +40.287888, +117.255936, -34.517193 
1488854867.021423, 1488854867.021423, -1.312622, +0.120239, -0.199951, +40.287888, +117.255936, -34.517193 
1488854867.025208, 1488854867.025208, -1.312622, +0.120239, -0.199951, +40.287888, +117.255936, -34.517193 
1488854867.028948, 1488854867.028948, -1.312622, +0.120239, -0.199951, +37.938034, +108.772049, -25.865461 
1488854867.032688, 1488854867.032688, -1.312622, +0.120239, -0.199951, +37.938034, +108.772049, -25.865461 
1488854867.036632, 1488854867.036632, -1.320312, +0.124512, -0.016113, +37.938034, +108.772049, -25.865461 
1488854867.040387, 1488854867.040387, -1.320312, +0.124512, -0.016113, +36.030685, +96.992264, -17.335798 
1488854867.044264, 1488854867.044264, -1.320312, +0.124512, -0.016113, +36.030685, +96.992264, -17.335798 
1488854867.048160, 1488854867.048160, -1.320312, +0.124512, -0.016113, +36.030685, +80.802689, -11.033917 
1488854867.052280, 1488854867.052280, -1.320312, +0.124512, -0.016113, +35.038864, +80.802689, -11.033917 
1488854867.056151, 1488854867.056151, -1.315430, +0.176758, +0.218872, +35.038864, +80.802689, -11.033917 
1488854867.059897, 1488854867.059897, -1.315430, +0.176758, +0.218872, +36.793625, +63.133015, -4.777814 
1488854867.063697, 1488854867.063697, -1.315430, +0.176758, +0.218872, +36.793625, +63.133015, -4.777814 
1488854867.067439, 1488854867.067439, -1.315430, +0.176758, +0.218872, +36.793625, +63.133015, -4.777814 
1488854867.071178, 1488854867.071178, -1.315430, +0.176758, +0.218872, +41.005051, +47.706379, +1.463030 
1488854867.074973, 1488854867.074973, -1.211182, +0.173096, +0.141968, +41.005051, +47.706379, +1.463030 
1488854867.078711, 1488854867.078711, -1.211182, +0.173096, +0.141968, +41.005051, +47.706379, +1.463030 
1488854867.082454, 1488854867.082454, -1.211182, +0.173096, +0.141968, +44.682419, +33.378376, +8.253192 
1488854867.086298, 1488854867.086298, -1.211182, +0.173096, +0.141968, +44.682419, +33.378376, +8.253192 
1488854867.090030, 1488854867.090030, -1.211182, +0.173096, +0.141968, +44.682419, +33.378376, +8.253192 
1488854867.093956, 1488854867.093956, -1.224854, +0.123535, +0.068604, +49.137985, +17.219316, +16.676043 
1488854867.097709, 1488854867.097709, -1.224854, +0.123535, +0.068604, +49.137985, +17.219316, +16.676043 
1488854867.101460, 1488854867.101460, -1.224854, +0.123535, +0.068604, +49.137985, +17.219316, +16.676043 
1488854867.105321, 1488854867.105321, -1.224854, +0.123535, +0.068604, +49.000656, +1.258624, +23.252581 
1488854867.109074, 1488854867.109074, -1.224854, +0.123535, +0.068604, +49.000656, +1.258624, +23.252581 
1488854867.112932, 1488854867.112932, -1.224854, +0.217285, -0.000122, +49.000656, +1.258624, +27.158831 
1488854867.116929, 1488854867.116929, -1.188232, +0.204590, -0.000122, +42.302048, -13.160933, +28.593157 
1488854867.120874, 1488854867.120874, -1.188232, +0.204590, -0.000122, +42.302048, -13.160933, +28.593157 
1488854867.124825, 1488854867.124825, -1.188232, +0.204590, -0.000122, +30.918991, -25.184858, +32.682514 
1488854867.128769, 1488854867.128769, -1.188232, +0.204590, -0.000122, +30.918991, -25.184858, +32.682514 
1488854867.132712, 1488854867.132712, -1.188232, +0.204590, -0.030396, +30.918991, -25.184858, +32.682514 
1488854867.136705, 1488854867.136705, -1.109863, +0.228271, -0.030396, +18.788254, -34.477459, +35.184956 
1488854867.140649, 1488854867.140649, -1.109863, +0.228271, -0.030396, +18.788254, -34.477459, +35.184956 
1488854867.144576, 1488854867.144576, -1.109863, +0.228271, -0.030396, +18.788254, -34.477459, +35.184956 
1488854867.148926, 1488854867.148926, -1.109863, +0.228271, -0.030396, +9.175216, -40.565716, +36.634541 
1488854867.152662, 1488854867.152662, -1.109863, +0.197021, -0.044434, +9.175216, -40.565716, +36.634541 
1488854867.156582, 1488854867.156582, -1.061279, +0.193481, -0.044434, +9.175216, -40.565716, +36.634541 
1488854867.160317, 1488854867.160317, -1.061279, +0.193481, -0.044434, +3.193771, -45.128094, +37.534809 
1488854867.164076, 1488854867.164076, -1.061279, +0.193481, -0.044434, +3.193771, -45.128094, +37.534809 
1488854867.167809, 1488854867.167809, -1.061279, +0.193481, -0.044434, +3.193771, -45.128094, +36.436176 
1488854867.171551, 1488854867.171551, -1.061279, +0.193481, -0.044434, +4.353438, -46.165691, +36.436176 
1488854867.175297, 1488854867.175297, -1.059204, -0.148560, -0.190063, +4.353438, -46.165691, +36.436176 
1488854867.179041, 1488854867.179041, -1.059204, -0.148560, -0.190063, +4.353438, -48.759686, +34.986591 
1488854867.182781, 1488854867.182781, -1.059204, -0.148560, -0.190063, +19.581711, -48.759686, +34.986591 
1488854867.186569, 1488854867.186569, -1.059204, -0.148560, -0.190063, +19.581711, -48.759686, +34.986591 
1488854867.190313, 1488854867.190313, -1.059204, -0.148560, -0.190063, +35.389816, -53.215252, +34.101582 
1488854867.194175, 1488854867.194175, -0.850464, -0.237061, -0.503296, +35.389816, -53.215252, +34.101582 
1488854867.197915, 1488854867.197915, -0.850464, -0.237061, -0.503296, +35.389816, -53.215252, +34.101582 
1488854867.201657, 1488854867.201657, -0.850464, -0.237061, -0.503296, +40.760910, -41.145550, +32.178974 
1488854867.205510, 1488854867.205510, -0.850464, -0.237061, -0.503296, +40.760910, -41.145550, +32.178974 
1488854867.209248, 1488854867.209248, -0.850464, -0.237061, -0.503296, +40.760910, -41.145550, +32.178974 
1488854867.213016, 1488854867.213016, -0.475220, -0.705933, -1.721924, +40.364182, -12.153852, +24.381731 
1488854867.216763, 1488854867.216763, -0.475220, -0.705933, -1.721924, +40.364182, -12.153852, +24.381731 
1488854867.220504, 1488854867.220504, -0.475220, -0.705933, -1.721924, +40.364182, -12.153852, +24.381731 
1488854867.224336, 1488854867.224336, -0.475220, -0.705933, -1.721924, +27.226364, +25.062334, +6.666277 
1488854867.228280, 1488854867.228280, -0.475220, -0.705933, -1.721924, +27.226364, +25.062334, +6.666277 
1488854867.232219, 1488854867.232219, -0.475220, -0.388428, -1.001587, +27.226364, +25.062334, +6.666277 
1488854867.236168, 1488854867.236168, -1.234375, -0.388428, -1.001587, -1.246537, +31.120073, +6.864642 
1488854867.240105, 1488854867.240105, -1.234375, -0.388428, -1.001587, -1.246537, +31.120073, +6.864642 
1488854867.244038, 1488854867.244038, -1.234375, -0.388428, -1.001587, -1.246537, +31.120073, +15.440082 
1488854867.247785, 1488854867.247785, -1.234375, -0.388428, -1.001587, -16.841019, -1.106489, +15.440082 
1488854867.251542, 1488854867.251542, -1.234375, -0.388428, -0.282837, -16.841019, -1.106489, +15.440082 
1488854867.255423, 1488854867.255423, -1.438721, -0.474365, -0.306152, -12.232865, -37.880169, +12.861346 
1488854867.259645, 1488854867.259645, -1.438721, -0.474365, -0.306152, -12.232865, -37.880169, +12.861346 
1488854867.263864, 1488854867.263864, -1.438721, -0.474365, -0.306152, -12.232865, -37.880169, +12.861346 
1488854867.267625, 1488854867.267625, -1.438721, -0.474365, -0.306152, -4.237260, -50.209270, +8.985614 
1488854867.271363, 1488854867.271363, -1.438721, -0.474365, -0.649902, -4.237260, -50.209270, +8.985614 
1488854867.275107, 1488854867.275107, -1.224365, +0.144775, -0.647583, -4.237260, -50.209270, +8.985614 
1488854867.278848, 1488854867.278848, -1.224365, +0.144775, -0.647583, -7.380570, -42.991863, +22.932146 
1488854867.282582, 1488854867.282582, -1.224365, +0.144775, -0.647583, -7.380570, -42.991863, +22.932146 
1488854867.286380, 1488854867.286380, -1.224365, +0.144775, -0.647583, -7.380570, -42.991863, +22.932146 
1488854867.290121, 1488854867.290121, -1.224365, +0.144775, -0.647583, -13.255204, -36.415325, +49.390888 
1488854867.293882, 1488854867.293882, -1.411377, +0.583618, -0.420532, -13.255204, -36.415325, +49.390888 
1488854867.297628, 1488854867.297628, -1.411377, +0.583618, -0.420532, -13.255204, -36.415325, +49.390888 
1488854867.301371, 1488854867.301371, -1.411377, +0.583618, -0.420532, -11.027421, -36.201702, +72.309586 
1488854867.305163, 1488854867.305163, -1.411377, +0.583618, -0.420532, -11.027421, -36.201702, +72.309586 
1488854867.308906, 1488854867.308906, -1.411377, +0.583618, -0.420532, -11.027421, -36.201702, +72.309586 
1488854867.312649, 1488854867.312649, -1.520996, -0.161011, -0.366943, +9.068404, -34.263836, +70.142838 
1488854867.316525, 1488854867.316525, -1.520996, -0.161011, -0.366943, +9.068404, -34.263836, +70.142838 
1488854867.320267, 1488854867.320267, -1.520996, -0.161011, -0.366943, +9.068404, -34.263836, +48.551655 
1488854867.324151, 1488854867.324151, -1.520996, -0.161011, -0.366943, +16.545212, -40.947186, +48.551655 
1488854867.327894, 1488854867.327894, -1.520996, -0.161011, -0.366943, +16.545212, -40.947186, +48.551655 
1488854867.331639, 1488854867.331639, -1.520996, -0.280396, -0.213501, +12.638961, -45.753704, +35.566425 
1488854867.335417, 1488854867.335417, -1.292847, -0.280396, -0.213501, +10.762130, -45.753704, +35.566425 
1488854867.339164, 1488854867.339164, -1.292847, -0.280396, -0.213501, +10.762130, -45.753704, +35.566425 
1488854867.342909, 1488854867.342909, -1.292847, -0.280396, -0.213501, +7.542525, -49.858318, +33.552265 
1488854867.346690, 1488854867.346690, -1.292847, -0.280396, -0.213501, +7.542525, -49.858318, +33.552265 
1488854867.350428, 1488854867.350428, -1.292847, -0.280396, -0.213501, +7.542525, -49.858318, +33.552265 
1488854867.354233, 1488854867.354233, -1.008667, +0.097534, -0.436890, +7.771407, -49.171673, +35.200214 
1488854867.357981, 1488854867.357981, -1.008667, +0.097534, -0.436890, +7.771407, -49.171673, +35.200214 
1488854867.361734, 1488854867.361734, -1.008667, +0.097534, -0.436890, +7.771407, -49.171673, +35.200214 
1488854867.365625, 1488854867.365625, -1.008667, +0.097534, -0.436890, +8.366500, -43.297039, +34.269428 
1488854867.369579, 1488854867.369579, -1.008667, +0.097534, -0.436890, +8.366500, -43.297039, +34.269428 
1488854867.373540, 1488854867.373540, -0.976440, +0.119507, -0.411377, +8.366500, -43.297039, +34.269428 
1488854867.377485, 1488854867.377485, -0.976440, +0.119507, -0.411377, +3.987228, -43.358074, +31.278704 
1488854867.381615, 1488854867.381615, -0.976440, +0.119507, -0.411377, +3.987228, -43.358074, +31.278704 
1488854867.385621, 1488854867.385621, -0.976440, +0.119507, -0.411377, +3.987228, -43.358074, +29.783342 
1488854867.389370, 1488854867.389370, -0.976440, +0.119507, -0.411377, -3.016557, -42.701946, +29.783342 
1488854867.393123, 1488854867.393123, -1.017700, -0.005615, -0.443359, -3.016557, -42.701946, +29.783342 
1488854867.397075, 1488854867.397075, -1.017700, -0.005615, -0.443359, -4.084672, -41.176067, +32.331562 
1488854867.401016, 1488854867.401016, -1.017700, -0.005615, -0.443359, -4.084672, -41.176067, +32.331562 
1488854867.404974, 1488854867.404974, -1.017700, -0.005615, -0.443359, -4.084672, -41.176067, +32.331562 
1488854867.409027, 1488854867.409027, -1.017700, -0.005615, -0.443359, -3.169144, -38.017498, +34.010029 
1488854867.412986, 1488854867.412986, -0.980957, +0.041870, -0.332275, -3.169144, -38.017498, +34.010029 
1488854867.416730, 1488854867.416730, -0.980957, +0.041870, -0.332275, -3.169144, -38.017498, +34.010029 
1488854867.420478, 1488854867.420478, -0.980957, +0.041870, -0.332275, +2.690231, -36.888348, +32.804585 
1488854867.424309, 1488854867.424309, -0.980957, +0.041870, -0.332275, +2.690231, -36.888348, +32.804585 
1488854867.428057, 1488854867.428057, -0.980957, +0.041870, -0.332275, +2.690231, -36.888348, +32.804585 
1488854867.431805, 1488854867.431805, -0.901245, +0.024536, -0.307251, +10.151778, -33.867107, +27.814959 
1488854867.435712, 1488854867.435712, -0.901245, +0.024536, -0.307251, +10.151778, -33.867107, +27.814959 
1488854867.439460, 1488854867.439460, -0.901245, +0.024536, -0.307251, +10.151778, -33.867107, +27.814959 
1488854867.443374, 1488854867.443374, -0.901245, +0.024536, -0.307251, +12.288009, -29.258955, +21.009539 
