Calculating the offsets...
timestamp_before, timestamp_after, accel_x, accel_y, accel_z, gyro_x, gyro_y, gyro_z
1488854991.594953, 1488854991.594953, -1.276367, +0.139160, -0.369385, +6.788801, -55.351028, +23.542046 
1488854991.609057, 1488854991.609057, -1.276367, +0.139160, -0.369385, +4.652571, -60.203323, +27.768730 
1488854991.612808, 1488854991.612808, -1.276367, +0.139160, -0.480103, +4.652571, -60.203323, +27.768730 
1488854991.616565, 1488854991.616565, -1.269775, -0.005981, -0.480103, +4.652571, -60.203323, +27.768730 
1488854991.620305, 1488854991.620305, -1.269775, -0.005981, -0.480103, -3.846575, -67.435989, +31.827568 
1488854991.624082, 1488854991.624082, -1.269775, -0.005981, -0.480103, -3.846575, -67.435989, +31.827568 
1488854991.627818, 1488854991.627818, -1.269775, -0.005981, -0.480103, -3.846575, -67.435989, +31.827568 
1488854991.631568, 1488854991.631568, -1.269775, -0.005981, -0.480103, -3.022600, -69.282303, +35.642265 
1488854991.635377, 1488854991.635377, -1.071899, +0.246460, -0.297729, -3.022600, -69.282303, +35.642265 
1488854991.639118, 1488854991.639118, -1.071899, +0.246460, -0.297729, -3.022600, -69.282303, +35.642265 
1488854991.642847, 1488854991.642847, -1.071899, +0.246460, -0.297729, -4.228045, -71.372757, +39.151787 
1488854991.646678, 1488854991.646678, -1.071899, +0.246460, -0.297729, -4.228045, -71.372757, +39.151787 
1488854991.650431, 1488854991.650431, -1.071899, +0.246460, -0.297729, -4.228045, -71.372757, +39.151787 
1488854991.654401, 1488854991.654401, -1.033447, +0.250854, -0.344116, -8.042742, -72.883377, +40.280937 
1488854991.658355, 1488854991.658355, -1.033447, +0.250854, -0.344116, -8.042742, -72.883377, +40.280937 
1488854991.662303, 1488854991.662303, -1.033447, +0.250854, -0.344116, -13.993670, -73.249588, +40.570854 
1488854991.666296, 1488854991.666296, -1.033447, +0.250854, -0.344116, -13.993670, -73.249588, +40.570854 
1488854991.670240, 1488854991.670240, -1.033447, +0.250854, -0.344116, -13.993670, -73.249588, +40.570854 
1488854991.674196, 1488854991.674196, -1.062012, +0.365845, -0.164917, -18.372942, -74.455032, +41.425346 
1488854991.678142, 1488854991.678142, -1.062012, +0.365845, -0.164917, -18.372942, -74.455032, +41.425346 
1488854991.682090, 1488854991.682090, -1.062012, +0.365845, -0.164917, -18.372942, -74.455032, +41.425346 
1488854991.685892, 1488854991.685892, -1.062012, +0.365845, -0.164917, -24.461199, -77.064285, +38.968681 
1488854991.689643, 1488854991.689643, -1.062012, +0.365845, -0.164917, -24.461199, -77.064285, +38.968681 
1488854991.693459, 1488854991.693459, -0.960449, +0.206543, -0.249512, -24.461199, -77.064285, +38.968681 
1488854991.697405, 1488854991.697405, -0.960449, +0.206543, -0.249512, -24.598528, -80.695877, +38.724541 
1488854991.701354, 1488854991.701354, -0.960449, +0.206543, -0.249512, -24.598528, -80.695877, +38.724541 
1488854991.705313, 1488854991.705313, -0.960449, +0.206543, -0.249512, -24.598528, -80.695877, +40.570854 
1488854991.709396, 1488854991.709396, -0.960449, +0.206543, -0.249512, -17.198015, -79.246292, +40.570854 
1488854991.713347, 1488854991.713347, -1.114502, +0.342896, -0.135864, -17.198015, -79.246292, +40.570854 
1488854991.717286, 1488854991.717286, -1.114502, +0.342896, -0.135864, -10.407854, -77.598343, +44.553398 
1488854991.721224, 1488854991.721224, -1.114502, +0.342896, -0.135864, -10.407854, -77.598343, +44.553398 
1488854991.725182, 1488854991.725182, -1.114502, +0.342896, -0.135864, -10.407854, -77.598343, +44.553398 
1488854991.729126, 1488854991.729126, -1.114502, +0.342896, -0.135864, -9.309221, -77.949295, +45.682549 
1488854991.733074, 1488854991.733074, -1.223022, +0.245117, -0.251953, -9.309221, -77.949295, +45.682549 
1488854991.736819, 1488854991.736819, -1.223022, +0.245117, -0.251953, -9.309221, -77.949295, +45.682549 
1488854991.740559, 1488854991.740559, -1.223022, +0.245117, -0.251953, -12.559343, -79.948196, +44.797539 
1488854991.744310, 1488854991.744310, -1.223022, +0.245117, -0.251953, -12.559343, -79.948196, +44.797539 
1488854991.748053, 1488854991.748053, -1.223022, +0.245117, -0.251953, -12.559343, -79.948196, +44.797539 
1488854991.751980, 1488854991.751980, -1.223022, +0.245117, +0.147949, -11.598040, -78.300247, +43.302177 
1488854991.755872, 1488854991.755872, -1.032715, +0.521606, +0.147949, -11.598040, -78.300247, +43.302177 
1488854991.759612, 1488854991.759612, -1.032715, +0.521606, +0.147949, -11.598040, -78.300247, +41.944145 
1488854991.763474, 1488854991.763474, -1.032715, +0.521606, +0.147949, -13.001848, -76.621780, +41.944145 
1488854991.767429, 1488854991.767429, -1.032715, +0.521606, +0.147949, -13.001848, -76.621780, +41.944145 
1488854991.771368, 1488854991.771368, -1.032715, +0.521606, +0.054199, -19.318987, -75.172195, +38.663506 
1488854991.775319, 1488854991.775319, -0.934570, +0.415405, +0.051392, -19.318987, -75.172195, +38.663506 
1488854991.779261, 1488854991.779261, -0.934570, +0.415405, +0.051392, -19.318987, -75.172195, +38.663506 
1488854991.783244, 1488854991.783244, -0.934570, +0.415405, +0.051392, -20.463396, -72.776566, +36.252617 
1488854991.786995, 1488854991.786995, -0.934570, +0.415405, +0.051392, -20.463396, -72.776566, +36.252617 
1488854991.790742, 1488854991.790742, -0.934570, +0.415405, +0.051392, -20.463396, -72.776566, +36.252617 
1488854991.794582, 1488854991.794582, -1.034180, +0.442139, +0.000488, -21.378923, -72.150955, +33.536552 
1488854991.798507, 1488854991.798507, -1.034180, +0.442139, +0.000488, -21.378923, -72.150955, +33.536552 
1488854991.802265, 1488854991.802265, -1.034180, +0.442139, +0.000488, -21.378923, -72.150955, +33.536552 
1488854991.806210, 1488854991.806210, -1.034180, +0.442139, +0.000488, -20.829607, -70.182571, +31.110405 
1488854991.810219, 1488854991.810219, -1.034180, +0.442139, +0.000488, -20.829607, -70.182571, +31.110405 
1488854991.814498, 1488854991.814498, -1.116455, +0.470093, +0.103149, -20.829607, -67.329178, +28.287529 
1488854991.818458, 1488854991.818458, -1.116455, +0.470093, +0.103149, -20.509172, -67.329178, +28.287529 
1488854991.822404, 1488854991.822404, -1.116455, +0.470093, +0.103149, -20.509172, -67.329178, +28.287529 
1488854991.826365, 1488854991.826365, -1.116455, +0.470093, +0.103149, -22.645403, -68.259964, +24.472832 
1488854991.830315, 1488854991.830315, -1.116455, +0.470093, +0.103149, -22.645403, -68.259964, +24.472832 
1488854991.834243, 1488854991.834243, -1.430908, +0.269409, +0.074463, -22.645403, -68.259964, +24.472832 
1488854991.837996, 1488854991.837996, -1.430908, +0.269409, +0.074463, -19.044329, -71.647415, +21.085381 
1488854991.841749, 1488854991.841749, -1.430908, +0.269409, +0.074463, -19.044329, -71.647415, +21.085381 
1488854991.845508, 1488854991.845508, -1.430908, +0.269409, +0.074463, -19.044329, -71.647415, +21.085381 
1488854991.849256, 1488854991.849256, -1.430908, +0.269409, +0.074463, -13.032366, -74.104080, +20.352959 
1488854991.853025, 1488854991.853025, -1.451782, +0.521973, -0.086304, -13.032366, -74.104080, +20.352959 
1488854991.856782, 1488854991.856782, -1.451782, +0.521973, -0.086304, -13.032366, -74.104080, +20.352959 
1488854991.860527, 1488854991.860527, -1.451782, +0.521973, -0.086304, -11.277605, -75.324783, +22.214531 
1488854991.864493, 1488854991.864493, -1.451782, +0.521973, -0.086304, -11.277605, -75.324783, +22.214531 
1488854991.868246, 1488854991.868246, -1.451782, +0.521973, -0.086304, -11.277605, -75.324783, +22.214531 
1488854991.872005, 1488854991.872005, -1.414062, +0.524902, -0.150879, -19.929338, -78.040848, +23.740410 
1488854991.876055, 1488854991.876055, -1.414062, +0.524902, -0.150879, -19.929338, -78.040848, +23.740410 
1488854991.880004, 1488854991.880004, -1.414062, +0.524902, -0.150879, -31.571795, -81.626663, +22.748589 
1488854991.883930, 1488854991.883930, -1.414062, +0.524902, -0.150879, -31.571795, -81.626663, +22.748589 
1488854991.887677, 1488854991.887677, -1.414062, +0.524902, -0.150879, -31.571795, -81.626663, +22.748589 
1488854991.891429, 1488854991.891429, -1.507812, +0.630737, +0.062256, -34.562515, -83.732376, +23.160576 
1488854991.895336, 1488854991.895336, -1.500610, +0.630737, +0.062256, -34.562515, -83.732376, +23.160576 
1488854991.899397, 1488854991.899397, -1.500610, +0.630737, +0.062256, -34.562515, -83.732376, +23.160576 
1488854991.903344, 1488854991.903344, -1.500610, +0.630737, +0.062256, -38.178848, -88.706741, +23.053764 
1488854991.907097, 1488854991.907097, -1.500610, +0.630737, +0.062256, -38.178848, -88.706741, +23.053764 
1488854991.910847, 1488854991.910847, -1.500610, +0.318237, -0.200928, -38.178848, -88.706741, +23.053764 
1488854991.914735, 1488854991.914735, -1.493286, +0.324585, -0.200928, -45.030045, -94.794998, +20.047783 
1488854991.918684, 1488854991.918684, -1.493286, +0.324585, -0.200928, -45.030045, -94.794998, +20.047783 
1488854991.922622, 1488854991.922622, -1.493286, +0.324585, -0.200928, -45.030045, -94.794998, +20.047783 
1488854991.926578, 1488854991.926578, -1.493286, +0.324585, -0.200928, -49.516129, -99.342117, +18.628716 
1488854991.930617, 1488854991.930617, -1.493286, +0.480835, -0.129883, -49.516129, -99.342117, +18.628716 
1488854991.934506, 1488854991.934506, -1.784790, +0.478271, -0.129883, -51.606583, -104.743729, +21.787285 
1488854991.938247, 1488854991.938247, -1.784790, +0.478271, -0.129883, -51.606583, -104.743729, +21.787285 
1488854991.941995, 1488854991.941995, -1.784790, +0.478271, -0.129883, -51.606583, -104.743729, +21.787285 
1488854991.945929, 1488854991.945929, -1.784790, +0.478271, -0.129883, -62.287735, -112.846146, +22.306084 
1488854991.949877, 1488854991.949877, -1.784790, +0.478271, -0.442383, -62.287735, -112.846146, +22.306084 
1488854991.953857, 1488854991.953857, -1.987183, +0.349365, -0.447632, -62.287735, -112.846146, +22.306084 
1488854991.957808, 1488854991.957808, -1.987183, +0.349365, -0.447632, -76.280045, -120.963821, +19.834160 
1488854991.961760, 1488854991.961760, -1.987183, +0.349365, -0.447632, -76.280045, -120.963821, +19.834160 
1488854991.965587, 1488854991.965587, -1.987183, +0.349365, -0.447632, -76.280045, -120.963821, +19.834160 
1488854991.969333, 1488854991.969333, -1.987183, +0.349365, -0.447632, -85.008072, -126.167068, +16.461967 
1488854991.973151, 1488854991.973151, -1.864746, +0.122437, -0.435181, -85.008072, -126.167068, +16.461967 
1488854991.976914, 1488854991.976914, -1.864746, +0.122437, -0.435181, -85.008072, -126.167068, +16.461967 
1488854991.980666, 1488854991.980666, -1.864746, +0.122437, -0.435181, -84.580826, -125.694046, +12.342094 
1488854991.984561, 1488854991.984561, -1.864746, +0.122437, -0.435181, -84.580826, -125.694046, +12.342094 
1488854991.988306, 1488854991.988306, -1.864746, +0.122437, -0.435181, -84.580826, -125.694046, +7.825493 
1488854991.992050, 1488854991.992050, -1.446167, +0.036987, -0.209106, -81.178116, -122.184525, +7.825493 
1488854991.995969, 1488854991.995969, -1.446167, +0.036987, -0.209106, -81.178116, -122.184525, +7.825493 
1488854991.999906, 1488854991.999906, -1.446167, +0.036987, -0.209106, -75.089859, -117.637405, +2.408623 
1488854992.004034, 1488854992.004034, -1.446167, +0.036987, -0.209106, -75.089859, -117.637405, +2.408623 
1488854992.007921, 1488854992.007921, -1.446167, +0.036987, -0.209106, -75.089859, -117.637405, +2.408623 
1488854992.012731, 1488854992.012731, -1.010742, -0.023560, +0.079346, -66.117691, -113.548050, -2.184273 
1488854992.016559, 1488854992.016559, -1.010742, -0.023560, +0.079346, -66.117691, -113.548050, -2.184273 
1488854992.020306, 1488854992.020306, -1.010742, -0.023560, +0.079346, -66.117691, -113.548050, -2.184273 
1488854992.024070, 1488854992.024070, -1.010742, -0.023560, +0.079346, -53.834366, -105.262527, -5.861641 
1488854992.027809, 1488854992.027809, -1.010742, -0.023560, +0.079346, -53.834366, -105.262527, -5.861641 
1488854992.031542, 1488854992.031542, -0.824463, +0.245239, +0.252197, -53.834366, -105.262527, -9.767891 
1488854992.035290, 1488854992.035290, -0.824463, +0.245239, +0.252197, -43.641495, -96.412430, -9.783150 
1488854992.039030, 1488854992.039030, -0.824463, +0.245239, +0.252197, -43.641495, -96.412430, -9.783150 
1488854992.042776, 1488854992.042776, -0.824463, +0.245239, +0.252197, -43.641495, -96.412430, -10.027290 
1488854992.046669, 1488854992.046669, -0.824463, +0.245239, +0.252197, -35.615372, -92.918167, -10.027290 
1488854992.050422, 1488854992.050422, -0.712891, +0.387085, +0.338379, -35.615372, -92.918167, -10.027290 
1488854992.054349, 1488854992.054349, -0.712891, +0.387085, +0.338379, -22.401262, -90.522537, -8.043648 
1488854992.058101, 1488854992.058101, -0.712891, +0.387085, +0.338379, -22.401262, -90.522537, -8.043648 
1488854992.061856, 1488854992.061856, -0.712891, +0.387085, +0.338379, -22.401262, -90.522537, -8.043648 
1488854992.065844, 1488854992.065844, -0.712891, +0.387085, +0.338379, -1.573015, -84.434280, -5.129219 
1488854992.069800, 1488854992.069800, -0.712891, +0.631226, +0.486816, -1.573015, -84.434280, -5.129219 
1488854992.073750, 1488854992.073750, -0.522095, +0.631226, +0.486816, -1.573015, -84.434280, -5.129219 
1488854992.077691, 1488854992.077691, -0.522095, +0.631226, +0.486816, +15.120100, -76.240311, -0.902534 
1488854992.081636, 1488854992.081636, -0.522095, +0.631226, +0.486816, +15.120100, -76.240311, -0.902534 
1488854992.085473, 1488854992.085473, -0.522095, +0.631226, +0.486816, +15.120100, -76.240311, -0.902534 
1488854992.089216, 1488854992.089216, -0.522095, +0.631226, +0.238037, +35.795761, -65.513382, +2.027153 
1488854992.093014, 1488854992.093014, -0.305298, +0.468628, +0.238037, +35.795761, -65.513382, +2.027153 
1488854992.096964, 1488854992.096964, -0.305298, +0.468628, +0.238037, +35.795761, -65.513382, -8.013130 
1488854992.100906, 1488854992.100906, -0.305298, +0.468628, +0.238037, +34.239365, -44.227371, -8.013130 
1488854992.104897, 1488854992.104897, -0.305298, +0.468628, +0.238037, +34.239365, -44.227371, -8.013130 
1488854992.108844, 1488854992.108844, -0.305298, +0.468628, -0.111450, +27.678083, -19.965899, -16.725899 
1488854992.112791, 1488854992.112791, -0.412354, +0.189453, -0.111450, +27.678083, -19.965899, -16.725899 
1488854992.116748, 1488854992.116748, -0.412354, +0.189453, -0.111450, +27.678083, -19.965899, -16.725899 
1488854992.120783, 1488854992.120783, -0.412354, +0.189453, -0.111450, +31.858992, -3.669512, -22.859932 
1488854992.124790, 1488854992.124790, -0.412354, +0.189453, -0.111450, +31.858992, -3.669512, -22.859932 
1488854992.128544, 1488854992.128544, -0.412354, +0.189453, +0.076050, +31.858992, -3.669512, -22.859932 
1488854992.132299, 1488854992.132299, -0.580444, +0.146240, +0.093628, +30.226301, +4.280317, -29.055000 
1488854992.136212, 1488854992.136212, -0.580444, +0.146240, +0.093628, +30.226301, +4.280317, -29.055000 
1488854992.140156, 1488854992.140156, -0.580444, +0.146240, +0.093628, +30.226301, +4.280317, -29.055000 
1488854992.144111, 1488854992.144111, -0.580444, +0.146240, +0.093628, +19.499372, +10.719526, -33.785225 
1488854992.148056, 1488854992.148056, -0.580444, +0.146240, +0.093628, +19.499372, +10.719526, -33.785225 
1488854992.152004, 1488854992.152004, -0.490723, +0.155151, +0.052002, +11.686872, +21.644819, -35.646797 
1488854992.155812, 1488854992.155812, -0.490723, +0.155151, +0.052002, +13.609480, +21.644819, -35.646797 
1488854992.159562, 1488854992.159562, -0.490723, +0.155151, +0.052002, +13.609480, +21.644819, -35.646797 
1488854992.163318, 1488854992.163318, -0.490723, +0.155151, +0.052002, +14.891218, +34.767380, -37.294746 
1488854992.167072, 1488854992.167072, -0.490723, +0.155151, +0.052002, +14.891218, +34.767380, -37.294746 
1488854992.170833, 1488854992.170833, -0.480957, +0.119385, +0.056519, +14.891218, +34.767380, -37.294746 
1488854992.174740, 1488854992.174740, -0.480957, +0.119385, +0.056519, +21.528791, +46.455612, -40.239693 
1488854992.178498, 1488854992.178498, -0.480957, +0.119385, +0.056519, +21.528791, +46.455612, -40.239693 
1488854992.182254, 1488854992.182254, -0.480957, +0.119385, +0.056519, +21.528791, +46.455612, -40.239693 
1488854992.186298, 1488854992.186298, -0.480957, +0.119385, +0.056519, +29.142927, +56.434860, -43.489815 
1488854992.190244, 1488854992.190244, -0.520386, +0.158569, +0.048096, +29.142927, +56.434860, -43.489815 
1488854992.194197, 1488854992.194197, -0.520386, +0.158569, +0.048096, +29.142927, +56.434860, -43.489815 
1488854992.198253, 1488854992.198253, -0.520386, +0.158569, +0.048096, +34.788681, +66.169968, -46.343208 
1488854992.202204, 1488854992.202204, -0.520386, +0.158569, +0.048096, +34.788681, +66.169968, -46.343208 
1488854992.206164, 1488854992.206164, -0.520386, +0.158569, +0.048096, +34.788681, +73.982468, -48.540474 
1488854992.210101, 1488854992.210101, -0.578369, +0.173706, -0.109009, +38.374496, +76.866379, -48.540474 
1488854992.214090, 1488854992.214090, -0.578369, +0.173706, -0.109009, +38.374496, +76.866379, -48.540474 
1488854992.218036, 1488854992.218036, -0.578369, +0.173706, -0.109009, +38.817001, +86.509933, -52.156807 
1488854992.221986, 1488854992.221986, -0.578369, +0.173706, -0.109009, +38.817001, +86.509933, -52.156807 
1488854992.225944, 1488854992.225944, -0.578369, +0.173706, -0.109009, +38.817001, +86.509933, -52.156807 
1488854992.229900, 1488854992.229900, -0.727051, +0.155396, -0.170776, +37.794662, +93.239059, -56.734444 
1488854992.233902, 1488854992.233902, -0.727051, +0.155396, -0.170776, +37.794662, +93.239059, -56.734444 
1488854992.237842, 1488854992.237842, -0.727051, +0.155396, -0.170776, +37.794662, +93.239059, -56.734444 
1488854992.241941, 1488854992.241941, -0.727051, +0.155396, -0.170776, +35.872055, +99.022141, -61.052681 
1488854992.245996, 1488854992.245996, -0.727051, +0.155396, -0.170776, +35.872055, +99.022141, -61.052681 
1488854992.249947, 1488854992.249947, -0.794800, +0.187622, -0.181396, +31.965803, +105.537643, -66.439034 
1488854992.253915, 1488854992.253915, -0.794800, +0.187622, -0.181396, +31.920027, +105.537643, -66.439034 
1488854992.257867, 1488854992.257867, -0.794800, +0.187622, -0.181396, +31.920027, +105.537643, -66.439034 
1488854992.261819, 1488854992.261819, -0.794800, +0.187622, -0.181396, +27.388166, +111.656418, -71.001411 
1488854992.265773, 1488854992.265773, -0.794800, +0.187622, -0.181396, +27.388166, +111.656418, -71.001411 
1488854992.269717, 1488854992.269717, -0.861694, +0.174438, -0.225830, +27.388166, +111.656418, -71.001411 
1488854992.273670, 1488854992.273670, -0.861694, +0.174438, -0.225830, +25.312971, +118.538132, -75.044991 
1488854992.277423, 1488854992.277423, -0.861694, +0.174438, -0.225830, +25.312971, +118.538132, -75.044991 
1488854992.281176, 1488854992.281176, -0.861694, +0.174438, -0.225830, +25.312971, +118.538132, -75.044991 
1488854992.284987, 1488854992.284987, -0.861694, +0.174438, -0.225830, +25.511335, +125.572433, -78.157784 
1488854992.289353, 1488854992.289353, -0.976440, +0.123413, -0.204590, +25.511335, +125.572433, -78.157784 
1488854992.293198, 1488854992.293198, -0.976440, +0.123413, -0.204590, +25.511335, +129.478683, -79.576851 
1488854992.296946, 1488854992.296946, -0.976440, +0.123413, -0.204590, +28.761457, +131.752243, -79.576851 
1488854992.300686, 1488854992.300686, -0.976440, +0.123413, -0.204590, +28.761457, +131.752243, -79.576851 
1488854992.304579, 1488854992.304579, -0.976440, +0.123413, -0.204590, +36.573959, +137.809982, -79.866768 
1488854992.308325, 1488854992.308325, -1.039917, +0.101440, -0.249878, +34.803940, +137.809982, -79.866768 
1488854992.312070, 1488854992.312070, -1.039917, +0.101440, -0.249878, +34.803940, +137.809982, -79.866768 
1488854992.316000, 1488854992.316000, -1.039917, +0.101440, -0.249878, +41.258408, +143.974533, -79.790474 
1488854992.319742, 1488854992.319742, -1.039917, +0.101440, -0.249878, +41.258408, +143.974533, -79.790474 
1488854992.323519, 1488854992.323519, -1.039917, +0.101440, -0.249878, +41.258408, +143.974533, -79.790474 
1488854992.327271, 1488854992.327271, -1.039917, +0.101440, -0.329956, +47.758652, +149.742355, -80.248238 
1488854992.331019, 1488854992.331019, -1.098999, +0.136230, -0.329956, +47.758652, +149.742355, -80.248238 
1488854992.334831, 1488854992.334831, -1.098999, +0.136230, -0.329956, +47.758652, +149.742355, -80.248238 
1488854992.338582, 1488854992.338582, -1.098999, +0.136230, -0.329956, +52.504135, +155.403366, -81.102730 
1488854992.342332, 1488854992.342332, -1.098999, +0.136230, -0.329956, +52.504135, +155.403366, -81.102730 
1488854992.346432, 1488854992.346432, -1.098999, +0.136230, -0.329956, +52.504135, +155.403366, -81.102730 
1488854992.350375, 1488854992.350375, -1.136597, +0.196045, -0.392212, +52.885605, +160.591354, -82.933784 
1488854992.354332, 1488854992.354332, -1.136597, +0.196045, -0.392212, +52.885605, +160.591354, -82.933784 
1488854992.358280, 1488854992.358280, -1.136597, +0.196045, -0.392212, +52.885605, +164.497604, -85.558296 
1488854992.362370, 1488854992.362370, -1.136597, +0.196045, -0.392212, +49.528671, +165.672531, -85.558296 
1488854992.366449, 1488854992.366449, -1.136597, +0.196045, -0.392212, +49.528671, +165.672531, -85.558296 
1488854992.370397, 1488854992.370397, -1.237915, +0.208496, -0.414185, +45.958115, +169.944992, -87.725044 
1488854992.374299, 1488854992.374299, -1.237915, +0.208496, -0.414185, +45.958115, +169.944992, -87.725044 
1488854992.378047, 1488854992.378047, -1.237915, +0.208496, -0.414185, +45.958115, +169.944992, -87.725044 
1488854992.381800, 1488854992.381800, -1.237915, +0.208496, -0.414185, +44.127060, +172.722092, -88.777901 
1488854992.385735, 1488854992.385735, -1.237915, +0.208496, -0.414185, +44.127060, +172.722092, -88.777901 
1488854992.389679, 1488854992.389679, -1.279907, +0.192017, -0.419189, +44.127060, +172.722092, -88.777901 
1488854992.393641, 1488854992.393641, -1.279907, +0.192017, -0.419189, +43.776108, +176.368942, -89.083076 
1488854992.397391, 1488854992.397391, -1.279907, +0.192017, -0.419189, +43.776108, +176.368942, -89.083076 
1488854992.401149, 1488854992.401149, -1.279907, +0.192017, -0.419189, +43.776108, +176.368942, -89.083076 
1488854992.404913, 1488854992.404913, -1.279907, +0.192017, -0.419189, +44.233871, +180.168381, -89.006783 
1488854992.408668, 1488854992.408668, -1.338379, +0.164185, -0.407837, +44.233871, +180.168381, -89.006783 
1488854992.412420, 1488854992.412420, -1.338379, +0.164185, -0.407837, +44.233871, +180.168381, -89.006783 
1488854992.416295, 1488854992.416295, -1.338379, +0.164185, -0.407837, +44.905258, +182.869186, -89.128853 
1488854992.420043, 1488854992.420043, -1.338379, +0.164185, -0.407837, +44.905258, +182.869186, -89.128853 
1488854992.423992, 1488854992.423992, -1.338379, +0.164185, -0.407837, +44.905258, +186.775436, -87.770821 
1488854992.427747, 1488854992.427747, -1.361694, +0.146362, -0.417236, +46.049667, +185.783615, -87.770821 
1488854992.431499, 1488854992.431499, -1.361694, +0.146362, -0.417236, +46.049667, +185.783615, -87.770821 
1488854992.435403, 1488854992.435403, -1.361694, +0.146362, -0.417236, +47.789169, +188.926926, -85.329414 
1488854992.439349, 1488854992.439349, -1.361694, +0.146362, -0.417236, +47.789169, +188.926926, -85.329414 
1488854992.443298, 1488854992.443298, -1.361694, +0.146362, -0.417236, +47.789169, +188.926926, -85.329414 
1488854992.447243, 1488854992.447243, -1.384277, +0.198975, -0.402466, +48.018051, +191.108932, -81.743599 
1488854992.451190, 1488854992.451190, -1.384277, +0.198975, -0.402466, +48.018051, +191.108932, -81.743599 
1488854992.455146, 1488854992.455146, -1.384277, +0.198975, -0.402466, +48.018051, +191.108932, -81.743599 
1488854992.459090, 1488854992.459090, -1.384277, +0.198975, -0.402466, +44.951035, +193.443527, -77.974678 
1488854992.463041, 1488854992.463041, -1.384277, +0.198975, -0.402466, +44.951035, +193.443527, -77.974678 
1488854992.466988, 1488854992.466988, -1.412598, +0.269287, -0.400513, +44.951035, +193.443527, -74.449898 
1488854992.470935, 1488854992.470935, -1.412598, +0.269287, -0.400513, +39.686752, +194.313278, -74.449898 
1488854992.474799, 1488854992.474799, -1.412598, +0.269287, -0.400513, +39.686752, +194.313278, -74.449898 
1488854992.478552, 1488854992.478552, -1.412598, +0.269287, -0.400513, +33.598495, +195.213547, -70.940376 
1488854992.482652, 1488854992.482652, -1.412598, +0.269287, -0.400513, +33.598495, +195.213547, -70.940376 
1488854992.486722, 1488854992.486722, -1.475098, +0.362915, -0.308105, +33.598495, +195.213547, -70.940376 
1488854992.490669, 1488854992.490669, -1.480591, +0.362915, -0.308105, +29.264997, +194.435349, -66.164375 
1488854992.494733, 1488854992.494733, -1.480591, +0.362915, -0.308105, +29.264997, +194.435349, -66.164375 
1488854992.498679, 1488854992.498679, -1.480591, +0.362915, -0.308105, +29.264997, +194.435349, -66.164375 
1488854992.502623, 1488854992.502623, -1.480591, +0.362915, -0.308105, +28.105330, +191.078415, -57.817818 
1488854992.506579, 1488854992.506579, -1.480591, +0.399292, -0.257812, +28.105330, +191.078415, -57.817818 
1488854992.510530, 1488854992.510530, -1.485596, +0.399292, -0.257812, +28.105330, +191.078415, -49.684883 
1488854992.514419, 1488854992.514419, -1.485596, +0.399292, -0.257812, +29.524397, +187.996140, -49.684883 
1488854992.518167, 1488854992.518167, -1.485596, +0.399292, -0.257812, +29.524397, +187.996140, -49.684883 
1488854992.521915, 1488854992.521915, -1.485596, +0.399292, -0.257812, +29.524397, +184.089890, -45.885445 
1488854992.525675, 1488854992.525675, -1.485596, +0.399292, -0.183838, +29.600691, +183.830490, -45.885445 
1488854992.529433, 1488854992.529433, -1.555420, +0.205811, -0.183838, +29.600691, +183.830490, -45.885445 
1488854992.533371, 1488854992.533371, -1.555420, +0.205811, -0.183838, +25.145124, +174.705734, -47.975899 
1488854992.537133, 1488854992.537133, -1.555420, +0.205811, -0.183838, +25.145124, +174.705734, -47.975899 
1488854992.540885, 1488854992.540885, -1.555420, +0.205811, -0.183838, +25.145124, +174.705734, -47.975899 
1488854992.544817, 1488854992.544817, -1.555420, +0.205811, -0.183838, +14.723372, +162.010422, -52.248360 
1488854992.548737, 1488854992.548737, -1.737793, +0.020874, +0.007935, +14.723372, +162.010422, -52.248360 
1488854992.552653, 1488854992.552653, -1.737793, +0.020874, +0.007935, +14.723372, +162.010422, -52.248360 
1488854992.556582, 1488854992.556582, -1.737793, +0.020874, +0.007935, +8.162092, +143.059006, -53.942085 
1488854992.560503, 1488854992.560503, -1.737793, +0.020874, +0.007935, +8.162092, +143.059006, -53.942085 
1488854992.564468, 1488854992.564468, -1.737793, +0.020874, +0.007935, +8.162092, +143.059006, -53.942085 
1488854992.568390, 1488854992.568390, -1.771973, +0.374268, +0.323486, +9.398054, +115.471115, -50.417305 
1488854992.572305, 1488854992.572305, -1.771973, +0.374268, +0.323486, +9.398054, +115.471115, -50.417305 
1488854992.576238, 1488854992.576238, -1.771973, +0.374268, +0.323486, +9.398054, +84.221115, -32.854439 
1488854992.580252, 1488854992.580252, -1.771973, +0.374268, +0.323486, +12.312483, +82.405319, -32.854439 
1488854992.584217, 1488854992.584217, -1.771973, +0.374268, +0.323486, +12.312483, +82.405319, -32.854439 
1488854992.588169, 1488854992.588169, -1.697632, +0.667725, +0.690430, +14.143538, +44.319382, -8.715034 
1488854992.592113, 1488854992.592113, -1.697632, +0.667725, +0.690430, +14.143538, +44.319382, -8.715034 
1488854992.596100, 1488854992.596100, -1.697632, +0.667725, +0.690430, +14.143538, +44.319382, -8.715034 
1488854992.600287, 1488854992.600287, -1.697632, +0.667725, +0.690430, +8.040022, +5.989302, +6.604790 
1488854992.604511, 1488854992.604511, -1.697632, +0.667725, +0.690430, +8.040022, +5.989302, +6.604790 
1488854992.608441, 1488854992.608441, -1.574951, +0.331055, +0.636230, +8.040022, +5.989302, +18.323540 
1488854992.612382, 1488854992.612382, -1.574951, +0.331055, +0.636230, -0.993181, -21.186602, +20.734428 
1488854992.616177, 1488854992.616177, -1.574951, +0.331055, +0.636230, -0.993181, -21.186602, +20.734428 
1488854992.619930, 1488854992.619930, -1.574951, +0.331055, +0.636230, -0.993181, -36.811600, +40.357231 
1488854992.623741, 1488854992.623741, -1.574951, +0.331055, +0.636230, -6.242205, -36.536942, +40.357231 
1488854992.627692, 1488854992.627692, -1.473755, +0.575684, +0.515869, -6.242205, -36.536942, +40.357231 
1488854992.631629, 1488854992.631629, -1.473755, +0.575684, +0.515869, -8.988787, -47.172318, +55.951714 
1488854992.635461, 1488854992.635461, -1.473755, +0.575684, +0.515869, -8.988787, -47.172318, +55.951714 
1488854992.639407, 1488854992.639407, -1.473755, +0.575684, +0.515869, -8.988787, -47.172318, +55.951714 
1488854992.643429, 1488854992.643429, -1.473755, +0.575684, +0.515869, -11.811663, -68.626175, +60.514091 
1488854992.647174, 1488854992.647174, -1.933960, -0.017334, +0.763062, -11.811663, -68.626175, +60.514091 
1488854992.650919, 1488854992.650919, -1.933960, -0.017334, +0.763062, -11.811663, -68.626175, +60.514091 
1488854992.654678, 1488854992.654678, -1.933960, -0.017334, +0.763062, -10.026384, -102.744827, +50.397514 
1488854992.658425, 1488854992.658425, -1.933960, -0.017334, +0.763062, -10.026384, -102.744827, +50.397514 
1488854992.662169, 1488854992.662169, -1.933960, -0.017334, +0.763062, -10.026384, -102.744827, +50.397514 
1488854992.665965, 1488854992.665965, -1.427612, -1.036255, -1.190552, +33.827377, -118.491898, +24.625420 
1488854992.669705, 1488854992.669705, -1.427612, -1.036255, -1.190552, +33.827377, -118.491898, +24.625420 
1488854992.673492, 1488854992.673492, -1.427612, -1.036255, -1.190552, +33.827377, -118.491898, +24.625420 
1488854992.677230, 1488854992.677230, -1.427612, -1.036255, -1.190552, +42.509628, -99.876175, +21.192192 
1488854992.681008, 1488854992.681008, -1.427612, -1.036255, -1.190552, +42.509628, -99.876175, +21.192192 
1488854992.684972, 1488854992.684972, -1.427612, +1.908936, +0.963257, +42.509628, -99.876175, +76.291679 
1488854992.688707, 1488854992.688707, -2.610840, +1.908936, +0.963257, +2.867292, -109.443436, +76.291679 
1488854992.692447, 1488854992.692447, -2.610840, +1.908936, +0.963257, +2.867292, -109.443436, +76.291679 
1488854992.696317, 1488854992.696317, -2.610840, +1.908936, +0.963257, +14.586042, -147.102127, +129.926331 
1488854992.700058, 1488854992.700058, -2.610840, +1.908936, +0.963257, +13.380598, -147.102127, +129.926331 
1488854992.703855, 1488854992.703855, -2.610840, +1.908936, +0.963257, +13.380598, -147.102127, +129.926331 
1488854992.707603, 1488854992.707603, -1.771973, -0.793457, -0.835815, +71.196152, -122.031937, +111.325859 
1488854992.711345, 1488854992.711345, -1.771973, -0.793457, -0.835815, +71.196152, -122.031937, +111.325859 
1488854992.715099, 1488854992.715099, -1.771973, -0.793457, -0.835815, +71.196152, -122.031937, +111.325859 
1488854992.718846, 1488854992.718846, -1.771973, -0.793457, -0.835815, +83.403183, -104.102859, +100.202202 
1488854992.722584, 1488854992.722584, -1.771973, -0.793457, -0.835815, +83.403183, -104.102859, +100.202202 
1488854992.726565, 1488854992.726565, -1.303223, -1.183228, -0.775513, +83.403183, -104.102859, +100.202202 
1488854992.730485, 1488854992.730485, -1.303223, -1.183228, -0.775513, +71.089340, -132.392654, +130.628235 
1488854992.734422, 1488854992.734422, -1.303223, -1.183228, -0.775513, +71.089340, -132.392654, +130.628235 
1488854992.738171, 1488854992.738171, -1.303223, -1.183228, -0.775513, +71.089340, -132.392654, +130.628235 
1488854992.741925, 1488854992.741925, -1.303223, -1.183228, -0.775513, +99.806381, -91.224442, +130.200989 
1488854992.745831, 1488854992.745831, -0.856689, +1.078491, -0.389404, +99.806381, -91.224442, +130.200989 
1488854992.749961, 1488854992.749961, -0.856689, +1.078491, -0.389404, +99.806381, -91.224442, +106.763481 
1488854992.754309, 1488854992.754309, -0.856689, +1.078491, -0.389404, +79.481674, -86.555252, +106.626152 
1488854992.758263, 1488854992.758263, -0.856689, +1.078491, -0.389404, +79.481674, -86.555252, +106.626152 
1488854992.762219, 1488854992.762219, -0.856689, +1.078491, -0.389404, +19.194197, -99.601517, +81.586479 
1488854992.766022, 1488854992.766022, -0.678833, +0.372681, -0.427246, +19.194197, -99.601517, +81.586479 
1488854992.769772, 1488854992.769772, -0.678833, +0.372681, -0.427246, +19.194197, -99.601517, +81.586479 
1488854992.773560, 1488854992.773560, -0.678833, +0.372681, -0.427246, -4.655291, -91.148148, +61.597466 
1488854992.777516, 1488854992.777516, -0.678833, +0.372681, -0.427246, -4.655291, -91.148148, +61.597466 
1488854992.781463, 1488854992.781463, -0.678833, +0.372681, -0.427246, -4.655291, -91.148148, +61.597466 
1488854992.785284, 1488854992.785284, -1.065918, +0.349121, -0.267090, -6.257463, -81.580887, +57.309746 
1488854992.789141, 1488854992.789141, -1.065918, +0.349121, -0.267090, -6.257463, -81.580887, +57.309746 
1488854992.792888, 1488854992.792888, -1.065918, +0.349121, -0.267090, -6.257463, -81.580887, +57.309746 
1488854992.796643, 1488854992.796643, -1.065918, +0.349121, -0.267090, -6.501604, -76.423416, +51.740288 
1488854992.800396, 1488854992.800396, -1.065918, +0.349121, -0.267090, -6.501604, -76.423416, +51.740288 
1488854992.804193, 1488854992.804193, -1.128418, +0.288940, -0.118896, -6.501604, -76.423416, +51.740288 
1488854992.807943, 1488854992.807943, -1.148193, +0.288940, -0.118896, -14.329363, -70.777664, +46.247124 
1488854992.811698, 1488854992.811698, -1.148193, +0.288940, -0.118896, -14.329363, -70.777664, +46.247124 
1488854992.815658, 1488854992.815658, -1.148193, +0.288940, -0.118896, -14.329363, -70.777664, +39.670586 
1488854992.819403, 1488854992.819403, -1.148193, +0.288940, -0.118896, -16.007830, -65.681229, +39.670586 
1488854992.823213, 1488854992.823213, -1.148193, +0.288940, -0.172607, -16.007830, -65.681229, +39.670586 
1488854992.827151, 1488854992.827151, -1.089478, +0.222900, -0.172607, -11.598040, -57.639847, +35.871147 
1488854992.831104, 1488854992.831104, -1.089478, +0.222900, -0.172607, -11.598040, -57.639847, +35.871147 
1488854992.835098, 1488854992.835098, -1.089478, +0.222900, -0.172607, -11.598040, -57.639847, +35.871147 
1488854992.839040, 1488854992.839040, -1.089478, +0.222900, -0.172607, -9.858538, -51.521072, +32.834648 
1488854992.842996, 1488854992.842996, -1.089478, +0.222900, -0.055908, -9.858538, -51.521072, +32.834648 
1488854992.846930, 1488854992.846930, -1.183472, +0.355469, -0.055908, -9.858538, -51.521072, +32.834648 
1488854992.850876, 1488854992.850876, -1.183472, +0.355469, -0.055908, -13.764788, -49.888382, +29.370903 
1488854992.854735, 1488854992.854735, -1.183472, +0.355469, -0.055908, -13.764788, -49.888382, +29.370903 
1488854992.858486, 1488854992.858486, -1.183472, +0.355469, -0.055908, -13.764788, -49.888382, +29.370903 
1488854992.862241, 1488854992.862241, -1.183472, +0.355469, -0.055908, -17.518450, -48.286209, +25.983452 
1488854992.866170, 1488854992.866170, -1.146606, +0.176880, -0.246948, -17.518450, -48.286209, +25.983452 
1488854992.870160, 1488854992.870160, -1.146606, +0.176880, -0.246948, -17.518450, -44.379959, +22.214531 
1488854992.874232, 1488854992.874232, -1.146606, +0.176880, -0.246948, -19.730974, -45.081863, +22.214531 
1488854992.878180, 1488854992.878180, -1.146606, +0.176880, -0.246948, -19.730974, -45.081863, +22.214531 
1488854992.882125, 1488854992.882125, -1.146606, +0.176880, -0.246948, -20.997454, -41.938553, +20.566582 
1488854992.886113, 1488854992.886113, -1.205933, +0.205444, -0.379761, -20.997454, -41.938553, +20.566582 
1488854992.890064, 1488854992.890064, -1.205933, +0.205444, -0.379761, -20.997454, -41.938553, +20.566582 
1488854992.894014, 1488854992.894014, -1.205933, +0.205444, -0.379761, -23.133684, -40.611038, +19.116997 
1488854992.897963, 1488854992.897963, -1.205933, +0.205444, -0.379761, -23.133684, -40.611038, +19.116997 
1488854992.901909, 1488854992.901909, -1.205933, +0.205444, -0.379761, -23.133684, -40.611038, +19.116997 
1488854992.905762, 1488854992.905762, -1.017700, +0.319702, -0.322144, -25.056292, -37.070999, +18.048882 
1488854992.909514, 1488854992.909514, -1.017700, +0.319702, -0.322144, -25.056292, -37.070999, +18.048882 
1488854992.913314, 1488854992.913314, -1.017700, +0.319702, -0.322144, -25.056292, -37.070999, +14.142632 
1488854992.917072, 1488854992.917072, -1.017700, +0.319702, -0.322144, -25.102068, -33.775101, +16.446709 
1488854992.920827, 1488854992.920827, -1.017700, +0.319702, -0.322144, -25.102068, -33.775101, +16.446709 
1488854992.924760, 1488854992.924760, -1.032593, +0.284302, -0.093384, -25.102068, -32.996902, +13.242363 
1488854992.928505, 1488854992.928505, -1.032593, +0.284302, -0.093384, -23.698259, -32.996902, +13.242363 
1488854992.932259, 1488854992.932259, -1.032593, +0.284302, -0.093384, -23.698259, -32.996902, +13.242363 
1488854992.936382, 1488854992.936382, -1.032593, +0.284302, -0.093384, -18.845964, -30.677568, +9.626030 
1488854992.940329, 1488854992.940329, -1.032593, +0.284302, -0.093384, -18.845964, -30.677568, +9.626030 
1488854992.944286, 1488854992.944286, -1.018921, +0.228271, -0.027954, -18.845964, -30.677568, +9.626030 
1488854992.948220, 1488854992.948220, -1.018921, +0.228271, -0.027954, -10.911394, -28.205645, +7.230400 
1488854992.952161, 1488854992.952161, -1.018921, +0.228271, -0.027954, -10.911394, -28.205645, +7.230400 
1488854992.955966, 1488854992.955966, -1.018921, +0.228271, -0.027954, -10.911394, -28.205645, +7.230400 
1488854992.959715, 1488854992.959715, -1.018921, +0.228271, -0.027954, -7.798601, -25.474321, +5.048393 
1488854992.963516, 1488854992.963516, -1.039551, +0.271729, -0.023682, -7.798601, -25.474321, +5.048393 
1488854992.967454, 1488854992.967454, -1.039551, +0.271729, -0.023682, -7.798601, -25.474321, +5.048393 
1488854992.971386, 1488854992.971386, -1.039551, +0.271729, -0.023682, -5.952288, -22.529375, +2.942680 
1488854992.975336, 1488854992.975336, -1.039551, +0.271729, -0.023682, -5.952288, -22.529375, +2.942680 
1488854992.979276, 1488854992.979276, -1.039551, +0.271729, -0.023682, -5.952288, -19.111406, -0.383736 
1488854992.983262, 1488854992.983262, -1.036255, +0.214111, -0.062256, -6.196428, -19.111406, -0.383736 
1488854992.987207, 1488854992.987207, -1.036255, +0.214111, -0.062256, -6.196428, -19.111406, -0.383736 
1488854992.991355, 1488854992.991355, -1.036255, +0.214111, -0.062256, -3.129412, -17.234575, -2.199532 
1488854992.995614, 1488854992.995614, -1.036255, +0.214111, -0.062256, -3.129412, -17.234575, -2.199532 
1488854992.999562, 1488854992.999562, -1.036255, +0.214111, -0.062256, -3.129412, -17.234575, -2.199532 
1488854993.003495, 1488854993.003495, -1.094482, +0.280518, -0.118286, +0.975203, -15.235674, -2.840401 
1488854993.007246, 1488854993.007246, -1.094482, +0.280518, -0.118286, +0.975203, -15.235674, -2.840401 
1488854993.010991, 1488854993.010991, -1.094482, +0.280518, -0.118286, +0.975203, -15.235674, -2.840401 
1488854993.014880, 1488854993.014880, -1.094482, +0.280518, -0.118286, +1.829695, -15.296709, -2.397896 
1488854993.018822, 1488854993.018822, -1.094482, +0.280518, -0.118286, +1.829695, -15.296709, -2.397896 
1488854993.022771, 1488854993.022771, -1.128418, +0.250244, -0.276245, +1.829695, -17.265093, -3.359200 
1488854993.026534, 1488854993.026534, -1.128418, +0.250244, -0.276245, -1.786638, -17.265093, -3.359200 
1488854993.030275, 1488854993.030275, -1.128418, +0.250244, -0.276245, -1.786638, -17.265093, -3.359200 
1488854993.034063, 1488854993.034063, -1.128418, +0.250244, -0.276245, -4.914690, -18.821489, -2.596260 
1488854993.037805, 1488854993.037805, -1.128418, +0.250244, -0.276245, -4.914690, -18.821489, -2.596260 
1488854993.041552, 1488854993.041552, -1.128418, +0.250244, -0.301025, -4.914690, -18.821489, -2.596260 
1488854993.045337, 1488854993.045337, -1.154785, +0.273071, -0.301025, -7.813860, -20.271074, -0.475288 
1488854993.049092, 1488854993.049092, -1.154785, +0.273071, -0.301025, -7.813860, -20.271074, -0.475288 
1488854993.052834, 1488854993.052834, -1.154785, +0.273071, -0.301025, -7.813860, -20.271074, -0.475288 
1488854993.056675, 1488854993.056675, -1.154785, +0.273071, -0.301025, -10.514666, -21.980059, +1.706718 
1488854993.060422, 1488854993.060422, -1.154785, +0.273071, -0.301025, -10.514666, -21.980059, +1.706718 
1488854993.064278, 1488854993.064278, -1.088379, +0.216064, -0.299072, -10.514666, -21.980059, +1.706718 
1488854993.068220, 1488854993.068220, -1.088379, +0.216064, -0.299072, -12.956072, -23.902666, +3.308891 
1488854993.072159, 1488854993.072159, -1.088379, +0.216064, -0.299072, -12.956072, -23.902666, +3.308891 
1488854993.076118, 1488854993.076118, -1.088379, +0.216064, -0.299072, -12.956072, -23.902666, +3.308891 
1488854993.080055, 1488854993.080055, -1.088379, +0.216064, -0.299072, -13.200212, -26.633989, +6.681084 
1488854993.084008, 1488854993.084008, -1.032227, +0.250977, -0.209473, -13.200212, -26.633989, +6.681084 
1488854993.088052, 1488854993.088052, -1.032227, +0.250977, -0.209473, -13.200212, -28.007280, +8.329033 
1488854993.091999, 1488854993.091999, -1.032227, +0.250977, -0.209473, -14.451433, -28.007280, +8.329033 
1488854993.095811, 1488854993.095811, -1.032227, +0.250977, -0.209473, -14.451433, -28.007280, +8.329033 
1488854993.099552, 1488854993.099552, -1.032227, +0.250977, -0.209473, -14.893938, -29.136431, +9.488701 
1488854993.103313, 1488854993.103313, -1.030273, +0.335571, -0.154541, -14.893938, -29.136431, +9.488701 
1488854993.107066, 1488854993.107066, -1.030273, +0.335571, -0.154541, -14.893938, -29.136431, +9.488701 
1488854993.111051, 1488854993.111051, -1.030273, +0.335571, -0.154541, -16.236712, -30.128252, +9.915947 
1488854993.115165, 1488854993.115165, -1.030273, +0.335571, -0.154541, -16.236712, -30.128252, +9.915947 
1488854993.119119, 1488854993.119119, -1.030273, +0.335571, -0.154541, -16.236712, -30.128252, +9.915947 
1488854993.123075, 1488854993.123075, -1.046143, +0.244385, -0.182861, -20.738054, -33.057938, +10.068535 
1488854993.127021, 1488854993.127021, -1.046143, +0.244385, -0.182861, -20.738054, -33.057938, +10.068535 
1488854993.130966, 1488854993.130966, -1.046143, +0.244385, -0.182861, -20.738054, -33.057938, +10.556816 
1488854993.134923, 1488854993.134923, -1.046143, +0.244385, -0.182861, -23.438860, -35.636673, +10.556816 
1488854993.138881, 1488854993.138881, -1.046143, +0.244385, -0.182861, -23.438860, -35.636673, +10.556816 
1488854993.142826, 1488854993.142826, -1.115356, +0.194946, -0.184082, -19.898821, -37.360916, +13.730644 
1488854993.146594, 1488854993.146594, -1.115356, +0.194946, -0.184082, -19.898821, -37.360916, +13.730644 
1488854993.150342, 1488854993.150342, -1.115356, +0.194946, -0.184082, -19.898821, -37.360916, +13.730644 
1488854993.154097, 1488854993.154097, -1.115356, +0.194946, -0.184082, -14.771868, -38.642654, +16.584038 
1488854993.157852, 1488854993.157852, -1.115356, +0.194946, -0.184082, -14.771868, -38.642654, +16.584038 
1488854993.161602, 1488854993.161602, -1.173828, +0.298096, -0.119019, -14.771868, -38.642654, +16.584038 
1488854993.165521, 1488854993.165521, -1.173828, +0.298096, -0.119019, -11.521746, -40.031204, +19.895195 
1488854993.169274, 1488854993.169274, -1.173828, +0.298096, -0.119019, -11.521746, -40.031204, +19.895195 
1488854993.173114, 1488854993.173114, -1.173828, +0.298096, -0.119019, -11.521746, -40.031204, +19.895195 
1488854993.177068, 1488854993.177068, -1.173828, +0.298096, -0.119019, -12.956072, -42.915115, +21.115898 
1488854993.181012, 1488854993.181012, -1.173828, +0.268677, -0.170166, -12.956072, -42.915115, +21.115898 
1488854993.184973, 1488854993.184973, -1.135376, +0.268677, -0.170166, -12.956072, -42.915115, +21.115898 
1488854993.188912, 1488854993.188912, -1.135376, +0.268677, -0.170166, -13.978411, -46.912918, +21.802544 
1488854993.192863, 1488854993.192863, -1.135376, +0.268677, -0.170166, -13.978411, -46.912918, +21.802544 
1488854993.196812, 1488854993.196812, -1.135376, +0.268677, -0.170166, -13.978411, -51.368484, +23.938774 
1488854993.200760, 1488854993.200760, -1.135376, +0.233887, -0.165405, -15.489031, -51.368484, +23.938774 
1488854993.204645, 1488854993.204645, -1.156860, +0.233887, -0.165405, -15.489031, -51.368484, +23.938774 
1488854993.208394, 1488854993.208394, -1.156860, +0.233887, -0.165405, -18.281389, -57.044754, +25.785088 
1488854993.212143, 1488854993.212143, -1.156860, +0.233887, -0.165405, -18.281389, -57.044754, +25.785088 
1488854993.216090, 1488854993.216090, -1.156860, +0.233887, -0.165405, -18.281389, -57.044754, +25.785088 
1488854993.220038, 1488854993.220038, -1.156860, +0.233887, -0.181885, -18.464495, -61.240921, +27.982353 
1488854993.223994, 1488854993.223994, -1.207520, +0.239258, -0.181885, -18.464495, -61.240921, +27.982353 
1488854993.227945, 1488854993.227945, -1.207520, +0.239258, -0.181885, -18.464495, -61.240921, +27.982353 
1488854993.231971, 1488854993.231971, -1.207520, +0.239258, -0.181885, -17.808367, -65.315018, +30.561089 
1488854993.236162, 1488854993.236162, -1.207520, +0.239258, -0.181885, -17.808367, -65.315018, +30.561089 
1488854993.240220, 1488854993.240220, -1.207520, +0.270508, -0.181152, -17.808367, -69.221268, +32.529472 
1488854993.244170, 1488854993.244170, -1.289917, +0.269165, -0.181152, -20.066668, -70.213089, +32.529472 
1488854993.248120, 1488854993.248120, -1.289917, +0.269165, -0.181152, -20.066668, -70.213089, +32.529472 
1488854993.252063, 1488854993.252063, -1.289917, +0.269165, -0.181152, -22.523333, -74.607620, +32.773613 
1488854993.255868, 1488854993.255868, -1.289917, +0.269165, -0.181152, -22.523333, -74.607620, +32.773613 
1488854993.259625, 1488854993.259625, -1.289917, +0.269165, -0.181152, -22.523333, -74.607620, +32.773613 
1488854993.263380, 1488854993.263380, -1.329346, +0.310425, -0.176514, -24.384905, -78.437576, +34.314751 
1488854993.267785, 1488854993.267785, -1.329346, +0.310425, -0.176514, -24.384905, -78.437576, +34.314751 
1488854993.271524, 1488854993.271524, -1.329346, +0.310425, -0.176514, -24.384905, -78.437576, +34.314751 
1488854993.275359, 1488854993.275359, -1.329346, +0.310425, -0.176514, -27.894426, -82.145462, +36.359428 
1488854993.279092, 1488854993.279092, -1.329346, +0.310425, -0.176514, -27.894426, -82.145462, +36.359428 
1488854993.282828, 1488854993.282828, -1.331055, +0.225586, -0.219849, -27.894426, -82.145462, +36.359428 
1488854993.286584, 1488854993.286584, -1.331055, +0.225586, -0.219849, -34.470963, -86.143265, +36.374687 
1488854993.290324, 1488854993.290324, -1.331055, +0.225586, -0.219849, -34.470963, -86.143265, +36.374687 
1488854993.294073, 1488854993.294073, -1.331055, +0.225586, -0.219849, -34.470963, -86.143265, +36.374687 
1488854993.297812, 1488854993.297812, -1.331055, +0.225586, -0.219849, -38.758682, -92.796097, +36.588310 
1488854993.301575, 1488854993.301575, -1.470947, +0.212402, -0.216187, -38.758682, -92.796097, +36.588310 
1488854993.305382, 1488854993.305382, -1.470947, +0.212402, -0.216187, -38.758682, -92.796097, +39.945244 
1488854993.309122, 1488854993.309122, -1.470947, +0.212402, -0.216187, -37.675308, -101.127396, +39.945244 
1488854993.312860, 1488854993.312860, -1.470947, +0.212402, -0.216187, -37.675308, -101.127396, +39.945244 
1488854993.316719, 1488854993.316719, -1.470947, +0.212402, -0.216187, -37.675308, -108.222733, +45.713066 
1488854993.320472, 1488854993.320472, -1.468262, +0.191162, -0.488159, -38.926529, -108.222733, +45.713066 
1488854993.324358, 1488854993.324358, -1.468262, +0.191162, -0.488159, -38.926529, -108.222733, +45.713066 
1488854993.328101, 1488854993.328101, -1.468262, +0.191162, -0.488159, -45.304703, -111.411819, +50.290703 
1488854993.331840, 1488854993.331840, -1.468262, +0.191162, -0.488159, -45.304703, -111.411819, +50.290703 
1488854993.335599, 1488854993.335599, -1.468262, +0.191162, -0.488159, -45.304703, -111.411819, +50.290703 
1488854993.339338, 1488854993.339338, -1.468262, +0.347412, -0.357910, -50.553726, -115.607986, +54.669975 
1488854993.343090, 1488854993.343090, -1.653931, +0.347656, -0.357910, -50.553726, -115.607986, +54.669975 
1488854993.347031, 1488854993.347031, -1.653931, +0.347656, -0.357910, -50.553726, -115.607986, +54.669975 
1488854993.350971, 1488854993.350971, -1.653931, +0.347656, -0.357910, -56.275772, -121.482620, +56.516289 
1488854993.354841, 1488854993.354841, -1.653931, +0.347656, -0.357910, -56.275772, -121.482620, +56.516289 
1488854993.358587, 1488854993.358587, -1.653931, +0.347656, -0.357910, -56.275772, -121.482620, +56.516289 
1488854993.362340, 1488854993.362340, -1.687866, +0.263672, -0.669922, -67.155289, -127.433548, +57.965874 
1488854993.366332, 1488854993.366332, -1.687866, +0.263672, -0.669922, -67.155289, -127.433548, +57.965874 
1488854993.370274, 1488854993.370274, -1.687866, +0.263672, -0.669922, -67.155289, -127.433548, +57.965874 
1488854993.374219, 1488854993.374219, -1.687866, +0.263672, -0.669922, -78.111099, -127.143631, +58.713554 
1488854993.378164, 1488854993.378164, -1.687866, +0.263672, -0.669922, -78.111099, -127.143631, +58.713554 
1488854993.382258, 1488854993.382258, -1.722900, +0.187988, -0.611206, -86.472916, -126.533279, +60.834526 
1488854993.386445, 1488854993.386445, -1.722900, +0.187988, -0.611206, -86.472916, -126.533279, +60.834526 
1488854993.390389, 1488854993.390389, -1.722900, +0.187988, -0.611206, -86.472916, -126.533279, +60.834526 
1488854993.394342, 1488854993.394342, -1.722900, +0.187988, -0.611206, -96.070694, -126.258621, +62.924980 
1488854993.398288, 1488854993.398288, -1.722900, +0.187988, -0.611206, -96.070694, -126.258621, +62.924980 
1488854993.402228, 1488854993.402228, -1.810913, +0.012817, -0.481934, -96.070694, -126.258621, +62.924980 
1488854993.406034, 1488854993.406034, -1.810913, +0.012817, -0.481934, -109.254288, -127.265701, +62.970757 
1488854993.409784, 1488854993.409784, -1.810913, +0.012817, -0.481934, -109.254288, -127.265701, +62.970757 
1488854993.413536, 1488854993.413536, -1.810913, +0.012817, -0.481934, -109.254288, -127.265701, +62.970757 
1488854993.417280, 1488854993.417280, -1.810913, +0.012817, -0.481934, -125.932144, -130.973587, +60.651421 
1488854993.421029, 1488854993.421029, -1.795044, -0.043213, -0.439575, -125.932144, -130.973587, +60.651421 
1488854993.424864, 1488854993.424864, -1.795044, -0.043213, -0.439575, -125.932144, -130.973587, +48.932671 
1488854993.428612, 1488854993.428612, -1.795044, -0.043213, -0.439575, -143.739151, -134.391556, +50.443291 
1488854993.432359, 1488854993.432359, -1.795044, -0.043213, -0.439575, -143.739151, -134.391556, +50.443291 
1488854993.436285, 1488854993.436285, -1.795044, -0.043213, -0.439575, -143.739151, -134.391556, +37.870049 
1488854993.440033, 1488854993.440033, -1.663086, +0.156860, -0.217651, -165.025162, -137.061844, +37.870049 
1488854993.443985, 1488854993.443985, -1.663086, +0.156860, -0.217651, -165.025162, -137.061844, +37.870049 
1488854993.447928, 1488854993.447928, -1.663086, +0.156860, -0.217651, -176.438736, -134.086380, +34.421562 
1488854993.451867, 1488854993.451867, -1.663086, +0.156860, -0.217651, -176.438736, -134.086380, +34.421562 
1488854993.455668, 1488854993.455668, -1.663086, +0.156860, -0.217651, -176.438736, -134.086380, +34.421562 
1488854993.459409, 1488854993.459409, -1.300171, +0.268066, -0.231445, -168.122696, -126.273880, +35.062431 
1488854993.463213, 1488854993.463213, -1.300171, +0.268066, -0.231445, -168.122696, -126.273880, +35.062431 
1488854993.467150, 1488854993.467150, -1.300171, +0.268066, -0.231445, -168.122696, -126.273880, +35.062431 
1488854993.471094, 1488854993.471094, -1.300171, +0.268066, -0.231445, -146.485733, -113.731155, +34.803032 
1488854993.474976, 1488854993.474976, -1.300171, +0.268066, -0.231445, -146.485733, -113.731155, +34.803032 
1488854993.478720, 1488854993.478720, -0.706421, +0.323730, -0.082031, -146.485733, -113.731155, +34.803032 
1488854993.482467, 1488854993.482467, -0.701172, +0.323730, -0.082031, -108.186172, -98.914871, +35.260796 
1488854993.486324, 1488854993.486324, -0.701172, +0.323730, -0.082031, -108.186172, -98.914871, +35.260796 
1488854993.490069, 1488854993.490069, -0.701172, +0.323730, -0.082031, -108.186172, -98.914871, +35.260796 
1488854993.493874, 1488854993.493874, -0.701172, +0.323730, -0.082031, -51.621841, -75.523148, +35.062431 
1488854993.497620, 1488854993.497620, -0.701172, +0.323730, +0.761719, -51.621841, -75.523148, +35.062431 
1488854993.501537, 1488854993.501537, -0.552368, +0.562256, +0.780640, -51.621841, -57.197342, +27.158379 
1488854993.505707, 1488854993.505707, -0.552368, +0.562256, +0.780640, -16.908098, -57.197342, +27.158379 
1488854993.509631, 1488854993.509631, -0.552368, +0.562256, +0.780640, -16.908098, -57.197342, +27.158379 
1488854993.513566, 1488854993.513566, -0.552368, +0.562256, +0.780640, +7.673811, -52.131424, +9.854912 
1488854993.517484, 1488854993.517484, -0.552368, +0.562256, +0.186890, +7.673811, -52.131424, +9.854912 
1488854993.521399, 1488854993.521399, -0.328003, -0.204590, +0.185181, +7.673811, -52.131424, +9.854912 
1488854993.525305, 1488854993.525305, -0.328003, -0.204590, +0.185181, +26.335310, -23.154985, -13.399483 
1488854993.529196, 1488854993.529196, -0.328003, -0.204590, +0.185181, +26.335310, -23.154985, -13.399483 
1488854993.533280, 1488854993.533280, -0.328003, -0.204590, +0.185181, +26.335310, -23.154985, -13.399483 
1488854993.537030, 1488854993.537030, -0.328003, -0.204590, +0.185181, +54.747177, +5.806196, -17.198921 
1488854993.540781, 1488854993.540781, -0.086670, -0.178589, -0.028687, +54.747177, +5.806196, -17.198921 
1488854993.544535, 1488854993.544535, -0.086670, -0.178589, -0.028687, +54.747177, +5.806196, -21.105171 
1488854993.548287, 1488854993.548287, -0.086670, -0.178589, -0.028687, +83.448959, +31.364668, -20.464302 
1488854993.552040, 1488854993.552040, -0.086670, -0.178589, -0.028687, +83.448959, +31.364668, -20.464302 
1488854993.555918, 1488854993.555918, -0.086670, -0.178589, -0.028687, +83.448959, +50.895920, -32.167793 
1488854993.559673, 1488854993.559673, -0.119263, +0.042358, -0.063843, +94.008041, +51.475754, -32.167793 
1488854993.563612, 1488854993.563612, -0.119263, +0.042358, -0.063843, +94.008041, +51.475754, -32.167793 
1488854993.567560, 1488854993.567560, -0.119263, +0.042358, -0.063843, +87.660385, +68.855515, -47.197701 
1488854993.571509, 1488854993.571509, -0.119263, +0.042358, -0.063843, +87.660385, +68.855515, -47.197701 
1488854993.575498, 1488854993.575498, -0.119263, +0.042358, -0.063843, +87.660385, +68.855515, -47.197701 
1488854993.579445, 1488854993.579445, -0.146606, +0.251099, -0.085327, +72.493149, +85.685959, -60.640694 
1488854993.583392, 1488854993.583392, -0.146606, +0.251099, -0.085327, +72.493149, +85.685959, -60.640694 
1488854993.587333, 1488854993.587333, -0.146606, +0.251099, -0.085327, +72.493149, +85.685959, -60.640694 
1488854993.591279, 1488854993.591279, -0.146606, +0.251099, -0.085327, +57.798935, +101.692429, -72.405220 
1488854993.595120, 1488854993.595120, -0.146606, +0.251099, -0.085327, +57.798935, +101.692429, -72.405220 
1488854993.598876, 1488854993.598876, -0.237915, +0.265503, +0.037842, +57.798935, +101.692429, -72.405220 
1488854993.602625, 1488854993.602625, -0.237915, +0.265503, +0.037842, +47.453476, +115.822067, -82.079292 
1488854993.606568, 1488854993.606568, -0.237915, +0.265503, +0.037842, +47.453476, +115.822067, -82.079292 
1488854993.610510, 1488854993.610510, -0.237915, +0.265503, +0.037842, +47.453476, +130.897751, -89.159370 
1488854993.614501, 1488854993.614501, -0.237915, +0.265503, +0.037842, +46.797348, +130.897751, -89.159370 
1488854993.618451, 1488854993.618451, -0.232910, +0.183716, -0.069702, +46.797348, +130.897751, -89.159370 
1488854993.623069, 1488854993.623069, -0.232910, +0.183716, -0.069702, +52.092148, +148.552170, -95.735909 
1488854993.627022, 1488854993.627022, -0.232910, +0.183716, -0.069702, +52.092148, +148.552170, -95.735909 
1488854993.630968, 1488854993.630968, -0.232910, +0.183716, -0.069702, +52.092148, +148.552170, -95.735909 
1488854993.634927, 1488854993.634927, -0.232910, +0.183716, -0.069702, +56.288315, +165.642014, -102.175117 
1488854993.638877, 1488854993.638877, -0.364258, +0.122925, -0.216797, +56.288315, +165.642014, -102.175117 
1488854993.642821, 1488854993.642821, -0.364258, +0.122925, -0.216797, +56.288315, +165.642014, -108.782173 
1488854993.646593, 1488854993.646593, -0.364258, +0.122925, -0.216797, +58.363510, +180.656662, -108.782173 
1488854993.650351, 1488854993.650351, -0.364258, +0.122925, -0.216797, +58.363510, +180.656662, -108.782173 
1488854993.654114, 1488854993.654114, -0.364258, +0.122925, -0.216797, +58.363510, +194.114914, -114.946724 
1488854993.657868, 1488854993.657868, -0.568115, +0.158081, -0.238525, +57.295395, +194.114914, -114.946724 
1488854993.661616, 1488854993.661616, -0.568115, +0.158081, -0.238525, +57.295395, +194.114914, -114.946724 
1488854993.665408, 1488854993.665408, -0.568115, +0.158081, -0.238525, +53.480698, +204.628220, -120.165230 
1488854993.669166, 1488854993.669166, -0.568115, +0.158081, -0.238525, +53.480698, +204.628220, -120.165230 
1488854993.672912, 1488854993.672912, -0.568115, +0.158081, -0.238525, +53.480698, +204.628220, -120.165230 
1488854993.676828, 1488854993.676828, -0.568115, +0.126831, -0.161743, +49.482895, +213.188400, -124.590279 
1488854993.680690, 1488854993.680690, -0.799194, +0.153076, -0.161743, +49.482895, +213.188400, -124.590279 
1488854993.684663, 1488854993.684663, -0.799194, +0.153076, -0.161743, +49.482895, +213.188400, -124.590279 
1488854993.688420, 1488854993.688420, -0.799194, +0.153076, -0.161743, +48.948837, +222.374191, -127.977730 
1488854993.692170, 1488854993.692170, -0.799194, +0.153076, -0.161743, +48.948837, +222.374191, -127.977730 
1488854993.696111, 1488854993.696111, -0.799194, +0.153076, -0.130493, +48.948837, +222.374191, -127.977730 
1488854993.700480, 1488854993.700480, -1.000122, +0.084351, -0.150024, +53.862167, +232.170334, -130.007141 
1488854993.704297, 1488854993.704297, -1.000122, +0.084351, -0.150024, +53.862167, +232.170334, -130.007141 
1488854993.708043, 1488854993.708043, -1.000122, +0.084351, -0.150024, +53.862167, +232.170334, -130.327576 
1488854993.711788, 1488854993.711788, -1.000122, +0.084351, -0.150024, +61.766220, +240.791550, -130.327576 
1488854993.715579, 1488854993.715579, -1.000122, +0.084351, -0.150024, +61.766220, +240.791550, -130.327576 
1488854993.719321, 1488854993.719321, -1.140747, +0.035767, -0.224976, +61.766220, +252.510300, -129.747742 
1488854993.723065, 1488854993.723065, -1.140747, +0.035767, -0.224976, +70.677353, +249.855270, -129.747742 
1488854993.726814, 1488854993.726814, -1.140747, +0.035767, -0.224976, +70.677353, +249.855270, -129.747742 
1488854993.730555, 1488854993.730555, -1.140747, +0.035767, -0.224976, +78.489853, +258.903717, -128.237122 
1488854993.734307, 1488854993.734307, -1.140747, +0.035767, -0.224976, +79.557968, +258.903717, -128.237122 
1488854993.738056, 1488854993.738056, -1.424805, -0.041016, -0.281494, +79.557968, +258.903717, -128.237122 
1488854993.741805, 1488854993.741805, -1.424805, -0.041016, -0.281494, +87.065292, +264.152740, -125.627876 
1488854993.745714, 1488854993.745714, -1.424805, -0.041016, -0.281494, +87.065292, +264.152740, -125.627876 
1488854993.749471, 1488854993.749471, -1.424805, -0.041016, -0.281494, +87.065292, +264.152740, -125.627876 
1488854993.753386, 1488854993.753386, -1.424805, -0.041016, -0.281494, +95.533920, +267.906403, -121.813179 
1488854993.757341, 1488854993.757341, -1.779541, +0.019287, -0.385986, +95.533920, +267.906403, -121.813179 
1488854993.761286, 1488854993.761286, -1.779541, +0.019287, -0.385986, +95.533920, +267.906403, -121.813179 
1488854993.765294, 1488854993.765294, -1.779541, +0.019287, -0.385986, +105.223251, +271.309113, -118.990303 
1488854993.769235, 1488854993.769235, -1.779541, +0.019287, -0.385986, +105.223251, +271.309113, -118.990303 
1488854993.773233, 1488854993.773233, -1.779541, +0.019287, -0.385986, +105.223251, +271.309113, -118.807198 
1488854993.777184, 1488854993.777184, -2.117188, +0.134277, -0.616821, +114.698959, +274.406647, -118.807198 
1488854993.781128, 1488854993.781128, -2.117188, +0.134277, -0.616821, +114.698959, +274.406647, -118.807198 
1488854993.785025, 1488854993.785025, -2.117188, +0.134277, -0.616821, +121.779037, +277.275299, -121.370674 
1488854993.788780, 1488854993.788780, -2.117188, +0.134277, -0.616821, +121.779037, +277.275299, -121.370674 
1488854993.792530, 1488854993.792530, -2.117188, +0.134277, -0.616821, +121.779037, +277.275299, -121.370674 
1488854993.796506, 1488854993.796506, -2.254150, +0.273071, -0.728271, +123.915268, +279.060577, -123.445869 
1488854993.800458, 1488854993.800458, -2.254150, +0.273071, -0.728271, +123.915268, +279.060577, -123.445869 
1488854993.804423, 1488854993.804423, -2.254150, +0.273071, -0.728271, +123.915268, +279.060577, -123.445869 
1488854993.808368, 1488854993.808368, -2.254150, +0.273071, -0.728271, +120.894028, +274.360870, -122.835518 
1488854993.812491, 1488854993.812491, -2.254150, +0.273071, -0.728271, +120.894028, +274.360870, -122.835518 
1488854993.816734, 1488854993.816734, -2.516846, +0.439697, -0.372925, +120.894028, +274.360870, -114.885689 
1488854993.820687, 1488854993.820687, -2.516846, +0.439697, -0.372925, +121.382309, +259.330963, -114.885689 
1488854993.824708, 1488854993.824708, -2.516846, +0.439697, -0.372925, +121.382309, +259.330963, -114.885689 
1488854993.828457, 1488854993.828457, -2.516846, +0.439697, -0.372925, +129.194809, +234.550705, -98.696114 
1488854993.832206, 1488854993.832206, -2.516846, +0.439697, -0.372925, +130.308701, +234.550705, -98.696114 
1488854993.836147, 1488854993.836147, -2.281372, +0.786011, +0.245117, +130.308701, +234.550705, -98.696114 
1488854993.840098, 1488854993.840098, -2.281372, +0.786011, +0.245117, +144.041611, +204.078903, -77.257515 
1488854993.844041, 1488854993.844041, -2.281372, +0.786011, +0.245117, +144.041611, +204.078903, -77.257515 
1488854993.847796, 1488854993.847796, -2.281372, +0.786011, +0.245117, +144.041611, +204.078903, -77.257515 
1488854993.851544, 1488854993.851544, -2.281372, +0.786011, +0.245117, +145.414902, +178.779831, -62.044502 
1488854993.855304, 1488854993.855304, -2.281372, +0.848511, +0.206909, +145.414902, +178.779831, -62.044502 
1488854993.859058, 1488854993.859058, -1.751953, +0.855835, +0.206909, +145.414902, +178.779831, -62.044502 
1488854993.862807, 1488854993.862807, -1.751953, +0.855835, +0.206909, +127.623154, +161.461105, -50.875069 
1488854993.866680, 1488854993.866680, -1.751953, +0.855835, +0.206909, +127.623154, +161.461105, -50.875069 
1488854993.870429, 1488854993.870429, -1.751953, +0.855835, +0.206909, +127.623154, +161.461105, -50.875069 
1488854993.874340, 1488854993.874340, -1.751953, +0.855835, +0.206909, +98.265244, +139.198532, -41.170479 
1488854993.878088, 1488854993.878088, -1.906006, +0.715088, +0.644409, +98.265244, +139.198532, -41.170479 
1488854993.881840, 1488854993.881840, -1.906006, +0.715088, +0.644409, +98.265244, +139.198532, -41.170479 
1488854993.885769, 1488854993.885769, -1.906006, +0.715088, +0.644409, +66.542221, +97.999802, -33.205391 
1488854993.889712, 1488854993.889712, -1.906006, +0.715088, +0.644409, +66.542221, +97.999802, -33.205391 
1488854993.893669, 1488854993.893669, -1.906006, +0.715088, +0.644409, +47.010971, +44.731369, -19.930244 
1488854993.897616, 1488854993.897616, -1.538452, +0.741699, +0.662720, +47.178818, +44.731369, -19.930244 
1488854993.901565, 1488854993.901565, -1.538452, +0.741699, +0.662720, +47.178818, +44.731369, -19.930244 
1488854993.905519, 1488854993.905519, -1.538452, +0.741699, +0.662720, +36.360336, +4.860151, -3.755928 
1488854993.909462, 1488854993.909462, -1.538452, +0.741699, +0.662720, +36.360336, +4.860151, -3.755928 
1488854993.913398, 1488854993.913398, -1.538452, +0.741699, +0.662720, +36.360336, +4.860151, -3.755928 
1488854993.917344, 1488854993.917344, -1.400024, +0.637085, +0.345215, +9.337019, -22.407305, +7.444023 
1488854993.921284, 1488854993.921284, -1.400024, +0.637085, +0.345215, +9.337019, -22.407305, +7.444023 
1488854993.925134, 1488854993.925134, -1.400024, +0.637085, +0.345215, +9.337019, -22.407305, +7.444023 
1488854993.928884, 1488854993.928884, -1.400024, +0.637085, +0.345215, -31.480242, -52.818069, +18.842339 
1488854993.932845, 1488854993.932845, -1.400024, +0.637085, +0.345215, -31.480242, -52.818069, +18.842339 
1488854993.936978, 1488854993.936978, -1.279297, +0.667603, +0.337891, -31.480242, -80.161819, +29.035210 
1488854993.940929, 1488854993.940929, -1.279297, +0.667603, +0.337891, -64.332413, -79.993973, +29.035210 
1488854993.944884, 1488854993.944884, -1.279297, +0.667603, +0.337891, -64.332413, -79.993973, +29.035210 
1488854993.948836, 1488854993.948836, -1.279297, +0.667603, +0.337891, -83.192276, -94.611893, +36.176323 
1488854993.952778, 1488854993.952778, -1.279297, +0.667603, +0.337891, -83.192276, -94.611893, +36.176323 
1488854993.956738, 1488854993.956738, -1.235840, +0.469238, +0.306030, -83.192276, -94.611893, +36.176323 
1488854993.960676, 1488854993.960676, -1.235840, +0.469238, +0.306030, -88.044571, -102.653275, +41.440605 
1488854993.964551, 1488854993.964551, -1.235840, +0.469238, +0.306030, -88.044571, -102.653275, +41.440605 
1488854993.968302, 1488854993.968302, -1.235840, +0.469238, +0.306030, -88.044571, -102.653275, +41.440605 
1488854993.972167, 1488854993.972167, -1.235840, +0.469238, +0.306030, -76.768326, -116.676102, +47.986626 
1488854993.975973, 1488854993.975973, -1.076294, +0.065186, +0.035889, -76.768326, -116.676102, +47.986626 
1488854993.979719, 1488854993.979719, -1.076294, +0.065186, +0.035889, -76.768326, -116.676102, +47.986626 
1488854993.983612, 1488854993.983612, -1.076294, +0.065186, +0.035889, -60.029434, -118.064651, +45.316338 
1488854993.987362, 1488854993.987362, -1.076294, +0.065186, +0.035889, -60.029434, -118.064651, +45.316338 
1488854993.991108, 1488854993.991108, -1.076294, +0.065186, +0.035889, -60.029434, -118.064651, +29.431938 
1488854993.995041, 1488854993.995041, -0.187988, -1.278564, -2.477905, -50.858902, -86.906204, +29.431938 
1488854993.998988, 1488854993.998988, -0.187988, -1.278564, -2.477905, -50.858902, -86.906204, +29.431938 
1488854994.002930, 1488854994.002930, -0.187988, -1.278564, -2.477905, -48.081802, -13.160479, -5.312325 
1488854994.006910, 1488854994.006910, -0.187988, -1.278564, -2.477905, -48.081802, -13.160479, -5.312325 
1488854994.010853, 1488854994.010853, -0.187988, -1.278564, -2.477905, -48.081802, -13.160479, -5.312325 
1488854994.014800, 1488854994.014800, -1.818481, -0.503296, -0.910034, -67.033218, +9.742964, -1.543404 
1488854994.018739, 1488854994.018739, -1.818481, -0.503296, -0.910034, -67.033218, +9.742964, -1.543404 
1488854994.022683, 1488854994.022683, -1.818481, -0.503296, -0.910034, -67.033218, +9.742964, -1.543404 
1488854994.026439, 1488854994.026439, -1.818481, -0.503296, -0.910034, -66.636490, -58.036575, +32.300591 
1488854994.030187, 1488854994.030187, -1.818481, -0.503296, -0.910034, -66.636490, -58.036575, +32.300591 
1488854994.033995, 1488854994.033995, -1.818481, +0.452759, +0.252686, -66.636490, -58.036575, +32.300591 
1488854994.037942, 1488854994.037942, -1.788452, +0.452759, +0.252686, -27.512957, -145.042191, +63.596367 
1488854994.041887, 1488854994.041887, -1.788452, +0.452759, +0.252686, -27.512957, -145.042191, +63.596367 
1488854994.045854, 1488854994.045854, -1.788452, +0.452759, +0.252686, -27.512957, -135.612259, +91.809868 
1488854994.049949, 1488854994.049949, -1.788452, +0.452759, +0.252686, +20.796370, -135.612259, +91.809868 
1488854994.054166, 1488854994.054166, -1.444702, +1.064575, -0.641968, +20.796370, -135.612259, +91.809868 
1488854994.058116, 1488854994.058116, -1.449707, +1.064575, -0.641968, +38.405014, -76.225052, +120.175957 
1488854994.062056, 1488854994.062056, -1.449707, +1.064575, -0.641968, +38.405014, -76.225052, +120.175957 
1488854994.066016, 1488854994.066016, -1.449707, +1.064575, -0.641968, +38.405014, -76.225052, +120.175957 
1488854994.069958, 1488854994.069958, -1.449707, +1.064575, -0.641968, +19.896101, -76.667557, +95.487236 
1488854994.073877, 1488854994.073877, -1.449707, -0.604980, +0.095459, +19.896101, -76.667557, +95.487236 
1488854994.077635, 1488854994.077635, -1.884033, -0.604980, +0.095459, +19.896101, -76.667557, +95.487236 
1488854994.081386, 1488854994.081386, -1.884033, -0.604980, +0.095459, -11.384417, -123.451004, +48.322319 
1488854994.085192, 1488854994.085192, -1.884033, -0.604980, +0.095459, -11.384417, -123.451004, +48.322319 
1488854994.088937, 1488854994.088937, -1.884033, -0.604980, +0.095459, -11.384417, -123.451004, +52.228569 
1488854994.092694, 1488854994.092694, -1.884033, -0.604980, +0.095459, +3.584455, -116.599808, +49.512505 
1488854994.096444, 1488854994.096444, -0.970581, -0.113281, -0.097046, +3.584455, -116.599808, +49.512505 
1488854994.100200, 1488854994.100200, -0.970581, -0.113281, -0.097046, +3.584455, -89.256058, +75.421928 
1488854994.104123, 1488854994.104123, -0.970581, -0.113281, -0.097046, +39.213730, -87.180862, +75.421928 
1488854994.107882, 1488854994.107882, -0.970581, -0.113281, -0.097046, +39.213730, -87.180862, +75.421928 
1488854994.111632, 1488854994.111632, -0.970581, -0.113281, -0.097046, +46.034409, -74.851761, +73.850273 
1488854994.115652, 1488854994.115652, -0.813354, +0.283936, +0.037598, +46.034409, -74.851761, +73.850273 
1488854994.119512, 1488854994.119512, -0.813354, +0.283936, +0.037598, +46.034409, -74.851761, +73.850273 
1488854994.123317, 1488854994.123317, -0.813354, +0.283936, +0.037598, +27.937483, -65.940628, +56.989311 
1488854994.127285, 1488854994.127285, -0.813354, +0.283936, +0.037598, +27.937483, -65.940628, +56.989311 
1488854994.131231, 1488854994.131231, -0.813354, +0.283936, +0.037598, +27.937483, -65.940628, +56.989311 
1488854994.135190, 1488854994.135190, -0.840454, +0.471680, -0.120605, +8.329939, -50.147781, +43.698906 
1488854994.139136, 1488854994.139136, -0.840454, +0.471680, -0.120605, +8.329939, -50.147781, +43.698906 
1488854994.143091, 1488854994.143091, -0.840454, +0.471680, -0.120605, +8.329939, -50.147781, +43.698906 
1488854994.146845, 1488854994.146845, -0.840454, +0.471680, -0.120605, +2.150129, -39.253006, +36.420464 
1488854994.150596, 1488854994.150596, -0.840454, +0.471680, -0.120605, +2.150129, -39.253006, +36.420464 
1488854994.154418, 1488854994.154418, -1.244141, +0.044678, -0.072510, +2.150129, -39.253006, +29.904961 
1488854994.158354, 1488854994.158354, -1.244141, +0.044678, -0.072510, +14.631819, -40.504227, +29.904961 
1488854994.162303, 1488854994.162303, -1.244141, +0.044678, -0.072510, +14.631819, -40.504227, +29.904961 
1488854994.166145, 1488854994.166145, -1.244141, +0.044678, -0.072510, +22.184919, -40.534744, +21.237968 
1488854994.170055, 1488854994.170055, -1.244141, +0.044678, -0.072510, +22.184919, -40.534744, +21.237968 
1488854994.174299, 1488854994.174299, -1.058228, -0.057617, -0.428589, +22.184919, -40.534744, +21.237968 
1488854994.178244, 1488854994.178244, -1.058228, -0.057617, -0.428589, +23.848127, -27.457964, +23.923515 
1488854994.182188, 1488854994.182188, -1.058228, -0.057617, -0.428589, +23.848127, -27.457964, +23.923515 
1488854994.186147, 1488854994.186147, -1.058228, -0.057617, -0.428589, +23.848127, -27.457964, +23.923515 
1488854994.190094, 1488854994.190094, -1.058228, -0.057617, -0.428589, +33.217026, -14.381182, +32.865166 
1488854994.194087, 1488854994.194087, -1.161743, +0.272217, -0.322388, +33.217026, -14.381182, +32.865166 
1488854994.198037, 1488854994.198037, -1.161743, +0.272217, -0.322388, +33.217026, -10.474932, +31.903862 
1488854994.201986, 1488854994.201986, -1.161743, +0.272217, -0.322388, +43.028427, -11.192095, +31.903862 
1488854994.205797, 1488854994.205797, -1.161743, +0.272217, -0.322388, +43.028427, -11.192095, +31.903862 
1488854994.209552, 1488854994.209552, -1.161743, +0.272217, -0.322388, +42.601181, -8.979570, +26.380180 
1488854994.213305, 1488854994.213305, -1.080200, +0.257935, -0.255493, +42.601181, -8.979570, +26.380180 
1488854994.217059, 1488854994.217059, -1.080200, +0.257935, -0.255493, +42.601181, -8.979570, +26.380180 
1488854994.220806, 1488854994.220806, -1.080200, +0.257935, -0.255493, +32.927109, -6.919634, +19.727348 
1488854994.224735, 1488854994.224735, -1.080200, +0.257935, -0.255493, +32.927109, -6.919634, +19.727348 
1488854994.228480, 1488854994.228480, -1.080200, +0.257935, -0.255493, +32.927109, -6.919634, +19.727348 
1488854994.232228, 1488854994.232228, -1.080200, +0.195435, -0.221436, +24.794172, -5.088579, +11.350273 
1488854994.236238, 1488854994.236238, -1.174927, +0.197144, -0.221436, +24.794172, -5.088579, +11.350273 
1488854994.240173, 1488854994.240173, -1.174927, +0.197144, -0.221436, +24.794172, -5.088579, +11.350273 
1488854994.244132, 1488854994.244132, -1.174927, +0.197144, -0.221436, +11.076521, -4.890215, +7.199883 
1488854994.248078, 1488854994.248078, -1.174927, +0.197144, -0.221436, +11.076521, -4.890215, +7.199883 
1488854994.252019, 1488854994.252019, -1.174927, +0.165894, -0.289673, +11.076521, -4.890215, +3.293633 
1488854994.255828, 1488854994.255828, -1.181152, +0.176636, -0.289673, +1.509260, -1.106035, +2.774834 
1488854994.259572, 1488854994.259572, -1.181152, +0.176636, -0.289673, +1.509260, -1.106035, +2.774834 
1488854994.263344, 1488854994.263344, -1.181152, +0.176636, -0.289673, +1.509260, -1.106035, -3.710152 
1488854994.267281, 1488854994.267281, -1.181152, +0.176636, -0.289673, -8.119036, -0.999224, -3.710152 
1488854994.271339, 1488854994.271339, -1.181152, +0.176636, -0.289673, -8.119036, -0.999224, -3.710152 
1488854994.275285, 1488854994.275285, -1.051270, +0.065552, -0.288818, -12.879778, +1.381147, -6.029488 
1488854994.279226, 1488854994.279226, -1.051270, +0.065552, -0.288818, -12.879778, +1.381147, -6.029488 
1488854994.283213, 1488854994.283213, -1.051270, +0.065552, -0.288818, -12.879778, +1.381147, -6.029488 
1488854994.287153, 1488854994.287153, -1.051270, +0.065552, -0.288818, -7.050920, +4.326094, -6.060005 
1488854994.291289, 1488854994.291289, -1.051270, +0.065552, -0.382568, -7.050920, +4.326094, -6.060005 
1488854994.295515, 1488854994.295515, -1.037231, +0.062378, -0.395630, -7.050920, +4.326094, -2.153755 
1488854994.299456, 1488854994.299456, -1.037231, +0.062378, -0.395630, -0.718523, +6.920088, -2.458931 
1488854994.303381, 1488854994.303381, -1.037231, +0.062378, -0.395630, -0.718523, +6.920088, -2.458931 
1488854994.307125, 1488854994.307125, -1.037231, +0.062378, -0.395630, -0.718523, +10.826338, +0.638603 
1488854994.310870, 1488854994.310870, -1.037231, +0.062378, -0.395630, +8.589338, +7.805098, +0.638603 
1488854994.314722, 1488854994.314722, -1.098999, +0.101929, -0.315308, +8.589338, +7.805098, +0.638603 
1488854994.318658, 1488854994.318658, -1.098999, +0.101929, -0.315308, +13.578962, +5.089033, +0.821709 
1488854994.322595, 1488854994.322595, -1.098999, +0.101929, -0.315308, +13.578962, +5.089033, +0.821709 
1488854994.326370, 1488854994.326370, -1.098999, +0.101929, -0.315308, +13.578962, +5.089033, +0.821709 
1488854994.330113, 1488854994.330113, -1.098999, +0.101929, -0.315308, +15.699934, +5.638350, +1.798271 
1488854994.333878, 1488854994.333878, -1.063843, +0.141113, -0.309326, +15.699934, +5.638350, +1.798271 
1488854994.337624, 1488854994.337624, -1.063843, +0.141113, -0.309326, +15.699934, +5.638350, +1.798271 
1488854994.341374, 1488854994.341374, -1.063843, +0.141113, -0.309326, +15.806746, +3.959883, +2.713799 
1488854994.345291, 1488854994.345291, -1.063843, +0.141113, -0.309326, +15.806746, +3.959883, +2.713799 
1488854994.349032, 1488854994.349032, -1.063843, +0.141113, -0.309326, +15.806746, +3.959883, +2.713799 
1488854994.352784, 1488854994.352784, -1.041870, +0.177612, -0.436279, +13.655256, +1.289595, +2.729057 
1488854994.356658, 1488854994.356658, -1.041870, +0.177612, -0.436279, +13.655256, +1.289595, +2.729057 
1488854994.360407, 1488854994.360407, -1.041870, +0.177612, -0.436279, +13.655256, +1.289595, +2.729057 
1488854994.364212, 1488854994.364212, -1.041870, +0.177612, -0.436279, +7.353376, -4.142534, +0.730156 
1488854994.368150, 1488854994.368150, -1.041870, +0.177612, -0.436279, +7.353376, -4.142534, +0.730156 
1488854994.372083, 1488854994.372083, -1.086548, +0.186157, -0.417358, +7.353376, -4.142534, +1.142143 
1488854994.376027, 1488854994.376027, -1.086548, +0.186157, -0.417358, -1.847673, -11.909258, +1.142143 
1488854994.379969, 1488854994.379969, -1.086548, +0.186157, -0.417358, -1.847673, -11.909258, +1.142143 
1488854994.383917, 1488854994.383917, -1.086548, +0.186157, -0.417358, -7.600237, -18.989336, +2.240776 
1488854994.387855, 1488854994.387855, -1.086548, +0.186157, -0.417358, -7.600237, -18.989336, +2.240776 
1488854994.391795, 1488854994.391795, -1.078613, +0.109253, -0.433960, -7.600237, -18.989336, +2.240776 
1488854994.395702, 1488854994.395702, -1.078613, +0.109253, -0.433960, -13.520647, -27.213823, +4.285454 
1488854994.399449, 1488854994.399449, -1.078613, +0.109253, -0.433960, -13.520647, -27.213823, +4.285454 
1488854994.403263, 1488854994.403263, -1.078613, +0.109253, -0.433960, -13.520647, -27.213823, +4.285454 
1488854994.407015, 1488854994.407015, -1.078613, +0.109253, -0.433960, -14.909197, -35.209427, +7.276176 
1488854994.411048, 1488854994.411048, -1.078613, +0.031738, -0.342163, -14.909197, -35.209427, +7.276176 
1488854994.415544, 1488854994.415544, -1.103882, +0.031738, -0.342163, -14.909197, -35.209427, +11.579155 
1488854994.419294, 1488854994.419294, -1.103882, +0.031738, -0.342163, -14.726091, -43.067703, +11.579155 
1488854994.423294, 1488854994.423294, -1.103882, +0.031738, -0.342163, -14.726091, -43.067703, +11.579155 
1488854994.427049, 1488854994.427049, -1.103882, +0.031738, -0.342163, -14.726091, -48.576126, +16.202568 
1488854994.430790, 1488854994.430790, -1.103882, -0.006592, -0.341553, -11.704851, -48.576126, +16.202568 
1488854994.434546, 1488854994.434546, -1.058105, -0.006592, -0.341553, -11.704851, -48.576126, +16.202568 
1488854994.438289, 1488854994.438289, -1.058105, -0.006592, -0.341553, -3.632952, -46.851883, +20.246147 
1488854994.442032, 1488854994.442032, -1.058105, -0.006592, -0.341553, -3.632952, -46.851883, +20.246147 
1488854994.445882, 1488854994.445882, -1.058105, -0.006592, -0.341553, -3.632952, -46.851883, +20.246147 
1488854994.449626, 1488854994.449626, -1.058105, -0.006592, -0.341553, +3.004622, -46.928177, +23.816704 
1488854994.453442, 1488854994.453442, -1.132446, +0.148682, -0.285034, +3.004622, -46.928177, +23.816704 
1488854994.457209, 1488854994.457209, -1.132446, +0.148682, -0.285034, +3.004622, -46.928177, +23.816704 
1488854994.460967, 1488854994.460967, -1.132446, +0.148682, -0.285034, +5.446028, -46.745071, +25.708794 
1488854994.464884, 1488854994.464884, -1.132446, +0.148682, -0.285034, +5.446028, -46.745071, +25.708794 
1488854994.468656, 1488854994.468656, -1.132446, +0.148682, -0.285034, +5.446028, -46.745071, +25.708794 
1488854994.472396, 1488854994.472396, -1.115967, +0.188354, -0.283691, +3.904890, -47.538528, +23.816704 
1488854994.476544, 1488854994.476544, -1.115967, +0.188354, -0.283691, +3.904890, -47.538528, +23.816704 
1488854994.480464, 1488854994.480464, -1.115967, +0.188354, -0.283691, +3.904890, -47.538528, +23.816704 
1488854994.484420, 1488854994.484420, -1.115967, +0.188354, -0.283691, +1.280378, -47.538528, +21.955132 
1488854994.488365, 1488854994.488365, -1.115967, +0.188354, -0.283691, +1.280378, -47.538528, +21.955132 
1488854994.492299, 1488854994.492299, -1.088989, +0.146973, -0.245361, -2.625872, -48.866043, +21.451591 
1488854994.496248, 1488854994.496248, -1.088989, +0.146973, -0.245361, -1.618791, -48.866043, +21.451591 
1488854994.500186, 1488854994.500186, -1.088989, +0.146973, -0.245361, -1.618791, -48.866043, +21.451591 
1488854994.504101, 1488854994.504101, -1.088989, +0.146973, -0.245361, -3.617693, -49.216995, +21.329521 
1488854994.507949, 1488854994.507949, -1.088989, +0.146973, -0.245361, -3.617693, -49.216995, +21.329521 
1488854994.511698, 1488854994.511698, -1.075195, +0.116089, -0.257202, -3.617693, -49.216995, +21.329521 
1488854994.515643, 1488854994.515643, -1.075195, +0.116089, -0.257202, -2.702166, -47.767410, +22.748589 
1488854994.519397, 1488854994.519397, -1.075195, +0.116089, -0.257202, -2.702166, -47.767410, +22.748589 
1488854994.523215, 1488854994.523215, -1.075195, +0.116089, -0.257202, -2.702166, -47.767410, +22.748589 
1488854994.527148, 1488854994.527148, -1.075195, +0.116089, -0.257202, +0.959944, -45.387039, +24.671196 
1488854994.531128, 1488854994.531128, -1.129272, +0.197388, -0.183472, +0.959944, -45.387039, +24.671196 
1488854994.535484, 1488854994.535484, -1.129272, +0.197388, -0.183472, +0.959944, -45.387039, +25.815605 
1488854994.539433, 1488854994.539433, -1.129272, +0.197388, -0.183472, +3.202986, -45.509109, +25.815605 
1488854994.543382, 1488854994.543382, -1.129272, +0.197388, -0.183472, +3.202986, -45.509109, +25.815605 
1488854994.547322, 1488854994.547322, -1.129272, +0.197388, -0.183472, +3.111433, -46.195755, +25.449394 
1488854994.551265, 1488854994.551265, -1.151367, +0.198120, -0.200806, +3.111433, -46.195755, +25.449394 
1488854994.555212, 1488854994.555212, -1.151367, +0.198120, -0.200806, +3.111433, -46.195755, +25.449394 
1488854994.559160, 1488854994.559160, -1.151367, +0.198120, -0.200806, +1.478743, -49.140701, +26.486992 
1488854994.563107, 1488854994.563107, -1.151367, +0.198120, -0.200806, +1.478743, -49.140701, +26.486992 
1488854994.566859, 1488854994.566859, -1.151367, +0.198120, -0.200806, +1.478743, -49.140701, +26.486992 
1488854994.570609, 1488854994.570609, -1.148560, +0.246094, -0.291504, +0.654768, -52.818069, +28.043388 
1488854994.574482, 1488854994.574482, -1.148560, +0.246094, -0.291504, +0.654768, -52.818069, +28.043388 
1488854994.578228, 1488854994.578228, -1.148560, +0.246094, -0.291504, +0.654768, -52.818069, +28.043388 
1488854994.581977, 1488854994.581977, -1.148560, +0.246094, -0.291504, -0.535417, -58.707962, +30.149101 
1488854994.585896, 1488854994.585896, -1.148560, +0.246094, -0.291504, -0.535417, -58.707962, +30.149101 
1488854994.589643, 1488854994.589643, -1.148560, +0.194336, -0.395142, -0.535417, -58.707962, +30.149101 
1488854994.593568, 1488854994.593568, -1.149902, +0.194336, -0.395142, +2.150129, -63.392410, +32.422661 
1488854994.597486, 1488854994.597486, -1.149902, +0.194336, -0.395142, +2.150129, -63.392410, +32.422661 
1488854994.601410, 1488854994.601410, -1.149902, +0.194336, -0.395142, -1.466204, -70.319901, +35.367607 
1488854994.605358, 1488854994.605358, -1.149902, +0.194336, -0.395142, -1.466204, -70.319901, +35.367607 
1488854994.609304, 1488854994.609304, -1.149902, +0.178345, -0.348877, -1.466204, -70.319901, +35.367607 
1488854994.613291, 1488854994.613291, -1.218506, +0.178345, -0.348877, -0.092913, -76.255569, +38.282036 
1488854994.617232, 1488854994.617232, -1.218506, +0.178345, -0.348877, -0.092913, -76.255569, +38.282036 
1488854994.621175, 1488854994.621175, -1.218506, +0.178345, -0.348877, -0.092913, -76.255569, +38.282036 
1488854994.625121, 1488854994.625121, -1.218506, +0.178345, -0.348877, +2.790998, -79.795609, +39.594292 
1488854994.629063, 1488854994.629063, -1.218506, +0.365845, -0.286499, +2.790998, -79.795609, +39.594292 
1488854994.633013, 1488854994.633013, -1.256714, +0.345093, -0.286499, +2.790998, -79.795609, +39.594292 
1488854994.636957, 1488854994.636957, -1.256714, +0.345093, -0.286499, -2.915789, -83.549271, +39.014458 
1488854994.640906, 1488854994.640906, -1.256714, +0.345093, -0.286499, -2.915789, -83.549271, +39.014458 
1488854994.644817, 1488854994.644817, -1.256714, +0.345093, -0.286499, -14.634539, -86.906204, +37.488579 
1488854994.648570, 1488854994.648570, -1.256714, +0.345093, -0.295410, -12.895037, -86.906204, +37.488579 
1488854994.652481, 1488854994.652481, -1.249146, +0.298096, -0.295410, -12.895037, -86.906204, +37.488579 
1488854994.656739, 1488854994.656739, -1.249146, +0.298096, -0.295410, -23.744036, -90.324173, +35.413383 
1488854994.660692, 1488854994.660692, -1.249146, +0.298096, -0.295410, -23.744036, -90.324173, +35.413383 
1488854994.664680, 1488854994.664680, -1.249146, +0.298096, -0.295410, -23.744036, -90.324173, +35.413383 
1488854994.668633, 1488854994.668633, -1.249146, +0.329346, -0.341064, -31.541277, -94.077835, +35.031914 
1488854994.672573, 1488854994.672573, -1.308960, +0.327026, -0.341064, -31.541277, -94.077835, +35.031914 
1488854994.676527, 1488854994.676527, -1.308960, +0.327026, -0.341064, -31.541277, -94.077835, +38.938164 
1488854994.680464, 1488854994.680464, -1.308960, +0.327026, -0.341064, -34.638809, -98.045120, +37.610649 
1488854994.684350, 1488854994.684350, -1.308960, +0.327026, -0.341064, -34.638809, -98.045120, +37.610649 
1488854994.688107, 1488854994.688107, -1.308960, +0.327026, -0.372314, -34.638809, -101.951370, +40.998100 
1488854994.691853, 1488854994.691853, -1.394043, +0.337402, -0.358398, -39.613174, -102.348099, +40.998100 
1488854994.695617, 1488854994.695617, -1.394043, +0.337402, -0.358398, -39.613174, -102.348099, +40.998100 
1488854994.699369, 1488854994.699369, -1.394043, +0.337402, -0.358398, -51.331924, -107.795486, +41.501640 
1488854994.703191, 1488854994.703191, -1.394043, +0.337402, -0.358398, -48.814224, -107.795486, +41.501640 
1488854994.706963, 1488854994.706963, -1.394043, +0.337402, -0.358398, -48.814224, -107.795486, +41.501640 
1488854994.710720, 1488854994.710720, -1.510498, +0.312744, -0.326050, -50.996231, -113.013992, +44.477104 
1488854994.714623, 1488854994.714623, -1.510498, +0.312744, -0.326050, -50.996231, -113.013992, +44.477104 
1488854994.718570, 1488854994.718570, -1.510498, +0.312744, -0.326050, -50.996231, -113.013992, +44.477104 
1488854994.722626, 1488854994.722626, -1.510498, +0.312744, -0.326050, -53.758072, -117.622147, +45.880913 
1488854994.726585, 1488854994.726585, -1.510498, +0.312744, -0.326050, -53.758072, -117.622147, +45.880913 
1488854994.730571, 1488854994.730571, -1.794556, +0.368652, -0.249146, -53.758072, -117.622147, +45.880913 
1488854994.734407, 1488854994.734407, -1.794556, +0.368652, -0.249146, -56.504654, -122.260818, +50.168633 
1488854994.738152, 1488854994.738152, -1.794556, +0.368652, -0.249146, -56.504654, -122.260818, +50.168633 
1488854994.742444, 1488854994.742444, -1.794556, +0.368652, -0.249146, -56.504654, -128.303299, +52.396416 
1488854994.746403, 1488854994.746403, -1.794556, +0.368652, -0.249146, -64.652847, -128.303299, +52.396416 
1488854994.750148, 1488854994.750148, -1.824585, +0.145996, -0.392090, -64.652847, -128.303299, +52.396416 
1488854994.753886, 1488854994.753886, -1.824585, +0.145996, -0.392090, -71.351456, -133.765945, +53.647636 
1488854994.757630, 1488854994.757630, -1.824585, +0.145996, -0.392090, -71.351456, -133.765945, +53.647636 
1488854994.761369, 1488854994.761369, -1.824585, +0.145996, -0.392090, -71.351456, -133.765945, +53.647636 
1488854994.765117, 1488854994.765117, -1.824585, +0.145996, -0.392090, -73.213028, -139.213333, +59.583305 
1488854994.768860, 1488854994.768860, -1.892090, +0.153442, -0.471436, -73.213028, -139.213333, +59.583305 
1488854994.772602, 1488854994.772602, -1.892090, +0.153442, -0.471436, -73.213028, -139.213333, +59.583305 
1488854994.776386, 1488854994.776386, -1.892090, +0.153442, -0.471436, -76.188492, -142.341385, +67.914604 
1488854994.780122, 1488854994.780122, -1.892090, +0.153442, -0.471436, -76.188492, -142.341385, +67.914604 
1488854994.784004, 1488854994.784004, -1.892090, +0.153442, -0.471436, -76.188492, -142.341385, +67.914604 
1488854994.787745, 1488854994.787745, -1.892090, +0.090942, -0.545654, -78.446793, -143.760452, +73.194145 
1488854994.791491, 1488854994.791491, -1.857178, +0.090820, -0.545654, -78.446793, -143.760452, +73.194145 
1488854994.795342, 1488854994.795342, -1.857178, +0.090820, -0.545654, -78.446793, -143.760452, +73.194145 
1488854994.799089, 1488854994.799089, -1.857178, +0.090820, -0.545654, -80.613541, -145.271072, +78.076958 
1488854994.802829, 1488854994.802829, -1.857178, +0.090820, -0.545654, -80.613541, -145.271072, +78.076958 
1488854994.806578, 1488854994.806578, -1.857178, +0.090820, -0.545654, -80.613541, -145.271072, +78.076958 
1488854994.810324, 1488854994.810324, -1.877563, +0.056396, -0.730957, -89.021133, -146.003494, +79.480766 
1488854994.814143, 1488854994.814143, -1.877563, +0.056396, -0.730957, -89.021133, -146.003494, +79.480766 
1488854994.818082, 1488854994.818082, -1.877563, +0.056396, -0.730957, -89.021133, -146.003494, +75.574516 
1488854994.822026, 1488854994.822026, -1.877563, +0.056396, -0.730957, -102.967667, -144.019852, +76.017021 
1488854994.825983, 1488854994.825983, -1.877563, +0.056396, -0.730957, -102.967667, -144.019852, +76.017021 
1488854994.829935, 1488854994.829935, -1.655518, -0.052856, -0.643677, -114.686417, -137.763748, +67.823051 
1488854994.833859, 1488854994.833859, -1.655518, -0.052856, -0.643677, -117.341446, -137.763748, +67.823051 
1488854994.837605, 1488854994.837605, -1.655518, -0.052856, -0.643677, -117.341446, -137.763748, +67.823051 
1488854994.841352, 1488854994.841352, -1.655518, -0.052856, -0.643677, -135.117935, -128.394852, +58.423637 
1488854994.845104, 1488854994.845104, -1.655518, -0.052856, -0.643677, -135.117935, -128.394852, +58.423637 
1488854994.848849, 1488854994.848849, -1.514526, +0.117676, +0.093140, -135.117935, -128.394852, +58.423637 
1488854994.852901, 1488854994.852901, -1.514526, +0.117676, +0.093140, -145.799088, -123.832474, +53.327202 
1488854994.857147, 1488854994.857147, -1.514526, +0.117676, +0.093140, -145.799088, -123.832474, +53.327202 
1488854994.861091, 1488854994.861091, -1.514526, +0.117676, +0.093140, -145.799088, -123.832474, +53.327202 
1488854994.865086, 1488854994.865086, -1.514526, +0.117676, +0.093140, -140.611099, -119.666824, +50.504326 
1488854994.869143, 1488854994.869143, -1.208252, +0.391846, +0.423462, -140.611099, -119.666824, +50.504326 
1488854994.873098, 1488854994.873098, -1.208252, +0.391846, +0.423462, -140.611099, -115.760574, +53.098320 
1488854994.877041, 1488854994.877041, -1.208252, +0.391846, +0.423462, -108.796524, -114.921341, +53.098320 
1488854994.880988, 1488854994.880988, -1.208252, +0.391846, +0.423462, -108.796524, -114.921341, +53.098320 
1488854994.884856, 1488854994.884856, -1.208252, +0.391846, +0.423462, -63.996719, -107.612381, +57.294487 
1488854994.888607, 1488854994.888607, -0.927002, +0.429932, +0.484375, -63.996719, -107.612381, +57.294487 
1488854994.892354, 1488854994.892354, -0.927002, +0.429932, +0.484375, -63.996719, -107.612381, +57.294487 
1488854994.896149, 1488854994.896149, -0.927002, +0.429932, +0.484375, -45.701431, -101.249466, +57.523369 
1488854994.899901, 1488854994.899901, -0.927002, +0.429932, +0.484375, -45.701431, -101.249466, +57.523369 
1488854994.903805, 1488854994.903805, -0.927002, +0.429932, +0.484375, -45.701431, -101.249466, +57.523369 
1488854994.907553, 1488854994.907553, -0.796143, +0.040649, +0.711060, -31.205584, -102.149734, +50.595879 
1488854994.911298, 1488854994.911298, -0.796143, +0.040649, +0.711060, -31.205584, -102.149734, +50.595879 
1488854994.915265, 1488854994.915265, -0.796143, +0.040649, +0.711060, -31.205584, -102.149734, +50.595879 
1488854994.919204, 1488854994.919204, -0.796143, +0.040649, +0.711060, -23.377825, -95.206985, +34.497856 
1488854994.923152, 1488854994.923152, -0.796143, +0.040649, +0.711060, -23.377825, -95.206985, +34.497856 
1488854994.927097, 1488854994.927097, -0.546143, -0.023804, +0.238892, -23.377825, -95.206985, +21.482109 
1488854994.931050, 1488854994.931050, -0.537598, -0.023804, +0.238892, -13.902117, -74.653397, +21.482109 
1488854994.935203, 1488854994.935203, -0.537598, -0.023804, +0.238892, -13.902117, -74.653397, +21.482109 
1488854994.939336, 1488854994.939336, -0.537598, -0.023804, +0.238892, +2.790998, -57.517776, +20.261406 
1488854994.943103, 1488854994.943103, -0.537598, -0.023804, +0.238892, +2.790998, -57.517776, +20.261406 
1488854994.946858, 1488854994.946858, -0.318848, -0.014282, +0.235718, +2.790998, -57.517776, +20.261406 
1488854994.950595, 1488854994.950595, -0.333740, -0.014282, +0.235718, +16.707014, -41.709671, +19.086479 
1488854994.954350, 1488854994.954350, -0.333740, -0.014282, +0.235718, +16.707014, -41.709671, +19.086479 
1488854994.958095, 1488854994.958095, -0.333740, -0.014282, +0.235718, +16.707014, -41.709671, +19.086479 
1488854994.961842, 1488854994.961842, -0.333740, -0.014282, +0.235718, +29.173445, -26.511919, +19.193291 
1488854994.965601, 1488854994.965601, -0.333740, -0.014282, +0.235718, +29.173445, -26.511919, +19.193291 
1488854994.969348, 1488854994.969348, -0.200928, +0.168945, +0.157471, +29.173445, -26.511919, +19.193291 
1488854994.973090, 1488854994.973090, -0.200928, +0.168945, +0.157471, +39.442612, -7.713091, +18.506645 
1488854994.976832, 1488854994.976832, -0.200928, +0.168945, +0.157471, +39.442612, -7.713091, +18.506645 
1488854994.980572, 1488854994.980572, -0.200928, +0.168945, +0.157471, +39.442612, -7.713091, +18.506645 
1488854994.984380, 1488854994.984380, -0.200928, +0.168945, +0.157471, +41.212631, +8.918989, +11.991142 
1488854994.988138, 1488854994.988138, -0.192017, +0.207031, +0.155029, +41.212631, +8.918989, +11.991142 
1488854994.991888, 1488854994.991888, -0.192017, +0.207031, +0.155029, +41.212631, +8.918989, +11.991142 
1488854994.995791, 1488854994.995791, -0.192017, +0.207031, +0.155029, +37.718369, +22.087324, +0.943779 
1488854994.999545, 1488854994.999545, -0.192017, +0.207031, +0.155029, +37.718369, +22.087324, +0.943779 
1488854995.003315, 1488854995.003315, -0.192017, +0.207031, +0.155029, +37.718369, +22.087324, -11.446358 
1488854995.007260, 1488854995.007260, -0.163086, +0.181152, +0.169312, +33.461166, +34.736862, -11.446358 
1488854995.011202, 1488854995.011202, -0.163086, +0.181152, +0.169312, +33.461166, +34.736862, -11.446358 
1488854995.015274, 1488854995.015274, -0.163086, +0.181152, +0.169312, +31.401228, +47.065964, -22.982002 
1488854995.019220, 1488854995.019220, -0.163086, +0.181152, +0.169312, +31.401228, +47.065964, -22.982002 
1488854995.023233, 1488854995.023233, -0.163086, +0.181152, +0.169312, +31.401228, +47.065964, -22.982002 
1488854995.027178, 1488854995.027178, -0.169678, +0.124023, +0.151123, +31.370710, +58.906784, -33.098579 
1488854995.031129, 1488854995.031129, -0.169678, +0.124023, +0.151123, +31.370710, +58.906784, -33.098579 
1488854995.035086, 1488854995.035086, -0.169678, +0.124023, +0.151123, +31.370710, +58.906784, -33.098579 
1488854995.039207, 1488854995.039207, -0.169678, +0.124023, +0.151123, +33.537460, +70.259323, -42.345406 
1488854995.043201, 1488854995.043201, -0.169678, +0.124023, +0.151123, +33.537460, +70.259323, -42.345406 
1488854995.046947, 1488854995.046947, -0.198242, +0.063721, +0.089233, +33.537460, +70.259323, -51.348091 
1488854995.050792, 1488854995.050792, -0.198242, +0.063721, +0.089233, +36.253525, +81.047287, -51.348091 
1488854995.055492, 1488854995.055492, -0.198242, +0.063721, +0.089233, +36.253525, +81.047287, -51.348091 
1488854995.059234, 1488854995.059234, -0.198242, +0.063721, +0.089233, +38.694931, +91.438522, -60.243965 
1488854995.063041, 1488854995.063041, -0.198242, +0.063721, +0.089233, +38.694931, +91.438522, -60.243965 
1488854995.066789, 1488854995.066789, -0.259033, +0.061279, +0.035767, +38.694931, +91.438522, -60.243965 
1488854995.070531, 1488854995.070531, -0.259033, +0.061279, +0.035767, +39.671494, +100.593796, -68.300606 
1488854995.074287, 1488854995.074287, -0.259033, +0.061279, +0.035767, +39.671494, +100.593796, -68.300606 
1488854995.078035, 1488854995.078035, -0.259033, +0.061279, +0.035767, +39.671494, +100.593796, -68.300606 
1488854995.081785, 1488854995.081785, -0.259033, +0.061279, +0.035767, +39.015366, +108.467331, -76.372505 
1488854995.085579, 1488854995.085579, -0.259033, +0.093628, -0.001343, +39.015366, +108.467331, -76.372505 
1488854995.089328, 1488854995.089328, -0.289307, +0.093628, -0.001343, +39.015366, +108.467331, -76.372505 
1488854995.093073, 1488854995.093073, -0.289307, +0.093628, -0.001343, +37.687851, +117.180099, -83.162666 
1488854995.096824, 1488854995.096824, -0.289307, +0.093628, -0.001343, +37.687851, +117.180099, -83.162666 
1488854995.100566, 1488854995.100566, -0.289307, +0.093628, -0.001343, +37.687851, +117.180099, -83.162666 
1488854995.104413, 1488854995.104413, -0.289307, +0.093628, -0.001343, +35.627914, +126.472702, -87.953926 
1488854995.108169, 1488854995.108169, -0.344604, +0.109741, -0.025635, +35.627914, +126.472702, -87.953926 
1488854995.111925, 1488854995.111925, -0.344604, +0.109741, -0.025635, +35.627914, +126.472702, -91.860176 
1488854995.115956, 1488854995.115956, -0.344604, +0.109741, -0.025635, +34.163071, +135.353317, -91.890694 
1488854995.119903, 1488854995.119903, -0.344604, +0.109741, -0.025635, +34.163071, +135.353317, -91.890694 
1488854995.123898, 1488854995.123898, -0.344604, +0.109741, -0.025635, +33.964706, +144.798508, -95.034004 
1488854995.127844, 1488854995.127844, -0.413330, +0.117310, -0.015015, +33.964706, +144.798508, -95.034004 
1488854995.131793, 1488854995.131793, -0.413330, +0.117310, -0.015015, +33.964706, +144.798508, -95.034004 
1488854995.135754, 1488854995.135754, -0.413330, +0.117310, -0.015015, +35.368515, +154.411545, -97.277046 
1488854995.139706, 1488854995.139706, -0.413330, +0.117310, -0.015015, +35.368515, +154.411545, -97.277046 
1488854995.143826, 1488854995.143826, -0.413330, +0.117310, -0.015015, +35.368515, +154.411545, -97.277046 
1488854995.147717, 1488854995.147717, -0.498291, +0.107788, -0.072266, +38.191391, +163.948288, -98.940254 
1488854995.151763, 1488854995.151763, -0.498291, +0.107788, -0.072266, +38.191391, +163.948288, -98.940254 
1488854995.155579, 1488854995.155579, -0.498291, +0.107788, -0.072266, +38.191391, +163.948288, -102.846504 
1488854995.159325, 1488854995.159325, -0.498291, +0.107788, -0.072266, +41.868759, +173.073044, -100.374580 
1488854995.163237, 1488854995.163237, -0.498291, +0.107788, -0.072266, +41.868759, +173.073044, -100.374580 
1488854995.166994, 1488854995.166994, -0.595459, +0.110474, -0.133423, +41.868759, +180.885544, -102.098824 
1488854995.170734, 1488854995.170734, -0.595459, +0.110474, -0.133423, +44.661118, +182.655563, -102.098824 
1488854995.174488, 1488854995.174488, -0.595459, +0.110474, -0.133423, +44.661118, +182.655563, -102.098824 
1488854995.178233, 1488854995.178233, -0.595459, +0.110474, -0.133423, +44.661118, +191.383591, -104.174019 
1488854995.181975, 1488854995.181975, -0.595459, +0.110474, -0.133423, +45.958115, +191.383591, -104.174019 
1488854995.185769, 1488854995.185769, -0.683716, +0.114258, -0.186646, +45.958115, +191.383591, -104.174019 
1488854995.189516, 1488854995.189516, -0.683716, +0.114258, -0.186646, +46.476913, +200.844040, -106.722237 
1488854995.193421, 1488854995.193421, -0.683716, +0.114258, -0.186646, +46.476913, +200.844040, -106.722237 
1488854995.197171, 1488854995.197171, -0.683716, +0.114258, -0.186646, +46.476913, +200.844040, -106.722237 
1488854995.200952, 1488854995.200952, -0.683716, +0.114258, -0.186646, +47.346664, +209.511032, -109.178902 
1488854995.204934, 1488854995.204934, -0.871216, +0.096924, -0.252563, +47.346664, +209.511032, -109.178902 
1488854995.208853, 1488854995.208853, -0.844360, +0.096924, -0.252563, +47.346664, +209.511032, -109.178902 
1488854995.212771, 1488854995.212771, -0.844360, +0.096924, -0.252563, +48.231674, +218.666306, -112.291695 
1488854995.216699, 1488854995.216699, -0.844360, +0.096924, -0.252563, +48.231674, +218.666306, -112.291695 
1488854995.220622, 1488854995.220622, -0.844360, +0.096924, -0.252563, +48.231674, +218.666306, -112.291695 
1488854995.224557, 1488854995.224557, -0.844360, +0.056641, -0.326538, +49.482895, +227.211227, -114.763618 
1488854995.228479, 1488854995.228479, -1.087891, +0.056641, -0.326538, +49.482895, +227.211227, -114.763618 
1488854995.232409, 1488854995.232409, -1.087891, +0.056641, -0.326538, +49.482895, +235.283127, -117.128731 
1488854995.236344, 1488854995.236344, -1.087891, +0.056641, -0.326538, +50.322128, +235.283127, -117.128731 
1488854995.240262, 1488854995.240262, -1.087891, +0.056641, -0.326538, +50.322128, +235.283127, -117.128731 
1488854995.244195, 1488854995.244195, -1.087891, +0.005981, -0.422729, +51.710678, +243.614426, -120.241524 
1488854995.248143, 1488854995.248143, -1.419312, +0.005981, -0.422729, +51.710678, +243.614426, -120.241524 
1488854995.252091, 1488854995.252091, -1.419312, +0.005981, -0.422729, +51.710678, +243.614426, -120.241524 
1488854995.256054, 1488854995.256054, -1.419312, +0.005981, -0.422729, +53.907944, +251.518478, -123.125435 
1488854995.260249, 1488854995.260249, -1.419312, +0.005981, -0.422729, +53.907944, +251.518478, -123.125435 
1488854995.264324, 1488854995.264324, -1.825562, +0.026978, -0.451538, +53.907944, +251.518478, -123.125435 
1488854995.268273, 1488854995.268273, -1.814819, +0.026978, -0.451538, +58.348251, +257.026886, -125.093819 
1488854995.272217, 1488854995.272217, -1.814819, +0.026978, -0.451538, +58.348251, +257.026886, -125.093819 
1488854995.276178, 1488854995.276178, -1.814819, +0.026978, -0.451538, +66.160751, +258.705353, -125.795723 
1488854995.280119, 1488854995.280119, -1.814819, +0.026978, -0.451538, +67.335678, +258.705353, -125.795723 
1488854995.284023, 1488854995.284023, -1.814819, +0.214966, -0.463257, +67.335678, +258.705353, -125.795723 
1488854995.287773, 1488854995.287773, -2.074707, +0.214966, -0.463257, +79.191757, +257.362579, -124.315620 
1488854995.291521, 1488854995.291521, -2.074707, +0.214966, -0.463257, +79.191757, +257.362579, -124.315620 
1488854995.295280, 1488854995.295280, -2.074707, +0.214966, -0.463257, +79.191757, +257.362579, -124.315620 
1488854995.299030, 1488854995.299030, -2.074707, +0.214966, -0.463257, +89.918686, +253.181686, -120.790840 
1488854995.302782, 1488854995.302782, -2.074707, +0.214966, -0.463257, +89.918686, +253.181686, -120.790840 
1488854995.306565, 1488854995.306565, -2.213013, +0.562866, -0.418335, +89.918686, +253.181686, -120.790840 
1488854995.310429, 1488854995.310429, -2.213013, +0.562866, -0.418335, +94.252182, +247.139206, -117.067696 
1488854995.314349, 1488854995.314349, -2.213013, +0.562866, -0.418335, +94.252182, +247.139206, -117.067696 
1488854995.318100, 1488854995.318100, -2.213013, +0.562866, -0.418335, +94.252182, +247.139206, -117.067696 
1488854995.321849, 1488854995.321849, -2.213013, +0.562866, -0.418335, +91.322495, +238.182297, -112.917305 
1488854995.325821, 1488854995.325821, -2.285156, +0.703979, -0.311401, +91.322495, +238.182297, -112.917305 
1488854995.329762, 1488854995.329762, -2.285156, +0.703979, -0.311401, +91.322495, +238.182297, -104.540230 
1488854995.333839, 1488854995.333839, -2.285156, +0.703979, -0.311401, +86.668564, +223.213425, -104.540230 
1488854995.337582, 1488854995.337582, -2.285156, +0.703979, -0.311401, +86.668564, +223.213425, -104.540230 
1488854995.341332, 1488854995.341332, -2.285156, +0.703979, -0.311401, +86.668564, +205.925217, -89.159370 
1488854995.345199, 1488854995.345199, -2.091064, +0.809082, -0.119507, +86.927963, +205.925217, -89.159370 
1488854995.349144, 1488854995.349144, -2.091064, +0.809082, -0.119507, +86.927963, +205.925217, -89.159370 
1488854995.353373, 1488854995.353373, -2.091064, +0.809082, -0.119507, +89.521957, +187.217941, -66.072823 
1488854995.357265, 1488854995.357265, -2.091064, +0.809082, -0.119507, +89.521957, +187.217941, -66.072823 
1488854995.361388, 1488854995.361388, -2.091064, +0.809082, -0.119507, +89.521957, +187.217941, -66.072823 
1488854995.365205, 1488854995.365205, -1.906250, +0.954834, +0.105469, +89.659286, +169.365158, -41.521431 
1488854995.368950, 1488854995.368950, -1.906250, +0.954834, +0.105469, +89.659286, +169.365158, -41.521431 
1488854995.372692, 1488854995.372692, -1.906250, +0.954834, +0.105469, +89.659286, +169.365158, -41.521431 
1488854995.376445, 1488854995.376445, -1.906250, +0.954834, +0.105469, +80.763412, +145.698776, -20.311714 
1488854995.380191, 1488854995.380191, -1.906250, +0.954834, +0.105469, +80.763412, +145.698776, -20.311714 
1488854995.383944, 1488854995.383944, -1.917114, +0.713867, +0.655151, +80.763412, +145.698776, -20.311714 
1488854995.387689, 1488854995.387689, -1.917114, +0.713867, +0.655151, +55.616928, +104.164352, -4.381538 
1488854995.391436, 1488854995.391436, -1.917114, +0.713867, +0.655151, +55.616928, +104.164352, -4.381538 
1488854995.395230, 1488854995.395230, -1.917114, +0.713867, +0.655151, +55.616928, +104.164352, +8.481621 
1488854995.398977, 1488854995.398977, -1.917114, +0.713867, +0.655151, +17.744612, +44.410934, +8.481621 
1488854995.402719, 1488854995.402719, -1.917114, +0.468140, +0.537109, +17.744612, +44.410934, +8.481621 
1488854995.406645, 1488854995.406645, -1.565918, +0.468140, +0.537109, +17.744612, -6.034624, +23.481010 
1488854995.410399, 1488854995.410399, -1.565918, +0.468140, +0.537109, +5.629133, -6.034624, +23.481010 
1488854995.414222, 1488854995.414222, -1.565918, +0.468140, +0.537109, +5.629133, -6.034624, +23.481010 
1488854995.418368, 1488854995.418368, -1.565918, +0.468140, +0.537109, +10.374617, -32.813797, +38.724541 
1488854995.422298, 1488854995.422298, -1.565918, +0.468140, +0.307129, +10.374617, -32.813797, +38.724541 
1488854995.426205, 1488854995.426205, -1.541504, +0.491333, +0.307129, +10.374617, -32.813797, +38.724541 
1488854995.430099, 1488854995.430099, -1.541504, +0.491333, +0.307129, -0.657488, -57.426224, +49.451469 
1488854995.433963, 1488854995.433963, -1.541504, +0.491333, +0.307129, -0.657488, -57.426224, +49.451469 
1488854995.437718, 1488854995.437718, -1.541504, +0.491333, +0.307129, -0.657488, -57.426224, +49.451469 
1488854995.441469, 1488854995.441469, -1.541504, +0.491333, +0.307129, -18.739153, -77.811966, +51.816582 
1488854995.445360, 1488854995.445360, -0.836304, -0.611450, -1.133179, -18.739153, -77.811966, +51.816582 
1488854995.449309, 1488854995.449309, -0.836304, -0.611450, -1.133179, -18.739153, -77.811966, +51.816582 
1488854995.453273, 1488854995.453273, -0.836304, -0.611450, -1.133179, -24.018694, -60.127029, +20.032524 
1488854995.457340, 1488854995.457340, -0.836304, -0.611450, -1.133179, -24.018694, -60.127029, +20.032524 
1488854995.461293, 1488854995.461293, -0.836304, -0.611450, -1.133179, -27.924944, -42.350540, -14.513374 
1488854995.465297, 1488854995.465297, -1.390015, -1.254761, -0.968384, -26.353289, -42.350540, -14.513374 
1488854995.469487, 1488854995.469487, -1.390015, -1.254761, -0.968384, -26.353289, -42.350540, -14.513374 
1488854995.473718, 1488854995.473718, -1.390015, -1.254761, -0.968384, -19.044329, -71.281204, -5.770088 
1488854995.477663, 1488854995.477663, -1.390015, -1.254761, -0.968384, -19.044329, -71.281204, -5.770088 
1488854995.481607, 1488854995.481607, -1.390015, -1.254761, +0.406616, -19.044329, -71.281204, -5.770088 
1488854995.485440, 1488854995.485440, -1.797119, -0.401489, +0.436157, +0.807356, -121.772537, +14.005302 
1488854995.489190, 1488854995.489190, -1.797119, -0.401489, +0.436157, +0.807356, -121.772537, +14.005302 
1488854995.492942, 1488854995.492942, -1.797119, -0.401489, +0.436157, +0.807356, -121.772537, +29.630302 
1488854995.496924, 1488854995.496924, -1.797119, -0.401489, +0.436157, +11.580061, -142.295609, +31.064629 
1488854995.500870, 1488854995.500870, -1.797119, -0.401489, +0.436157, +11.580061, -142.295609, +31.064629 
1488854995.504731, 1488854995.504731, -1.276733, +0.393555, -0.704834, +3.767561, -104.285965, +60.330986 
1488854995.508481, 1488854995.508481, -1.276733, +0.393555, -0.704834, +4.255842, -104.285965, +60.330986 
1488854995.512236, 1488854995.512236, -1.276733, +0.393555, -0.704834, +4.255842, -104.285965, +60.330986 
1488854995.515992, 1488854995.515992, -1.276733, +0.393555, -0.704834, -23.438860, -73.142776, +100.095390 
1488854995.519751, 1488854995.519751, -1.276733, +0.393555, -0.704834, -23.438860, -73.142776, +100.095390 
1488854995.524026, 1488854995.524026, -1.633057, +0.296509, -0.151489, -23.438860, -73.142776, +100.095390 
1488854995.527791, 1488854995.527791, -1.633057, +0.296509, -0.151489, -14.985491, -66.505203, +129.895813 
1488854995.531536, 1488854995.531536, -1.633057, +0.296509, -0.151489, -14.985491, -66.505203, +129.895813 
1488854995.535473, 1488854995.535473, -1.633057, +0.296509, -0.151489, -14.985491, -66.505203, +129.895813 
1488854995.539219, 1488854995.539219, -1.633057, +0.296509, -0.151489, +36.573959, -56.586990, +115.415215 
1488854995.543007, 1488854995.543007, -1.600464, -0.484741, -0.107178, +36.573959, -56.586990, +115.415215 
1488854995.546881, 1488854995.546881, -1.600464, -0.484741, -0.107178, +36.573959, -56.586990, +115.415215 
1488854995.550619, 1488854995.550619, -1.600464, -0.484741, -0.107178, +60.179306, -51.933060, +98.447441 
1488854995.554516, 1488854995.554516, -1.600464, -0.484741, -0.107178, +60.179306, -51.933060, +98.447441 
1488854995.558260, 1488854995.558260, -1.600464, -0.484741, -0.107178, +60.179306, -51.933060, +98.447441 
1488854995.562002, 1488854995.562002, -0.975464, -0.020752, -0.508789, +83.830429, -75.889359, +108.579277 
1488854995.565943, 1488854995.565943, -0.991455, -0.020752, -0.508789, +83.830429, -75.889359, +108.579277 
1488854995.569704, 1488854995.569704, -0.991455, -0.020752, -0.508789, +83.830429, -83.701859, +101.880669 
1488854995.573515, 1488854995.573515, -0.991455, -0.020752, -0.508789, +108.336044, -85.685501, +101.880669 
1488854995.577505, 1488854995.577505, -0.991455, -0.020752, -0.508789, +108.336044, -85.685501, +101.880669 
1488854995.581262, 1488854995.581262, -0.991455, +0.822998, -0.507812, +91.383530, -71.342239, +89.200615 
1488854995.585122, 1488854995.585122, -0.657104, +0.839478, -0.507812, +91.383530, -71.342239, +89.200615 
1488854995.589063, 1488854995.589063, -0.657104, +0.839478, -0.507812, +91.383530, -71.342239, +89.200615 
1488854995.593664, 1488854995.593664, -0.657104, +0.839478, -0.507812, +33.857895, -76.072464, +68.524956 
1488854995.597614, 1488854995.597614, -0.657104, +0.839478, -0.507812, +33.857895, -76.072464, +68.524956 
1488854995.601559, 1488854995.601559, -1.000854, +0.207642, -0.245239, +33.857895, -76.072464, +68.524956 
1488854995.605643, 1488854995.605643, -1.021851, +0.207642, -0.245239, -20.722795, -90.354691, +42.447685 
1488854995.609590, 1488854995.609590, -1.021851, +0.207642, -0.245239, -20.722795, -90.354691, +42.447685 
1488854995.613545, 1488854995.613545, -1.021851, +0.207642, -0.245239, -28.535295, -82.267532, +33.475517 
1488854995.617493, 1488854995.617493, -1.021851, +0.207642, -0.245239, -31.373430, -82.267532, +33.475517 
1488854995.621438, 1488854995.621438, -1.115601, +0.018799, -0.256226, -31.373430, -82.267532, +33.475517 
1488854995.625285, 1488854995.625285, -1.113770, +0.018799, -0.256226, -17.060686, -69.404373, +37.259697 
1488854995.629035, 1488854995.629035, -1.113770, +0.018799, -0.256226, -17.060686, -69.404373, +37.259697 
1488854995.632789, 1488854995.632789, -1.113770, +0.018799, -0.256226, -17.060686, -69.404373, +37.259697 
1488854995.636571, 1488854995.636571, -1.113770, +0.018799, -0.256226, -0.108171, -61.469803, +37.320732 
1488854995.640324, 1488854995.640324, -1.113770, +0.018799, -0.224976, -0.108171, -61.469803, +37.320732 
1488854995.644178, 1488854995.644178, -1.098267, +0.192871, -0.234741, -0.108171, -61.469803, +37.320732 
1488854995.647919, 1488854995.647919, -1.098267, +0.192871, -0.234741, +8.482527, -52.573929, +34.253716 
1488854995.651665, 1488854995.651665, -1.098267, +0.192871, -0.234741, +8.482527, -52.573929, +34.253716 
1488854995.655637, 1488854995.655637, -1.098267, +0.192871, -0.234741, +8.482527, -52.573929, +34.253716 
1488854995.659580, 1488854995.659580, -1.098267, +0.192871, -0.234741, +4.042219, -44.852982, +27.692436 
1488854995.663535, 1488854995.663535, -1.086792, +0.084106, -0.307617, +4.042219, -44.852982, +27.692436 
1488854995.667476, 1488854995.667476, -1.086792, +0.084106, -0.307617, +4.042219, -44.852982, +23.831963 
1488854995.671420, 1488854995.671420, -1.086792, +0.084106, -0.307617, -1.145769, -39.634476, +23.831963 
1488854995.675269, 1488854995.675269, -1.086792, +0.084106, -0.307617, -1.145769, -39.634476, +23.831963 
1488854995.679018, 1488854995.679018, -1.086792, +0.084106, -0.307617, +6.666731, -35.255203, +21.588921 
1488854995.682762, 1488854995.682762, -1.184692, +0.145142, -0.300171, +5.125593, -35.255203, +21.588921 
1488854995.686566, 1488854995.686566, -1.184692, +0.145142, -0.300171, +5.125593, -35.255203, +21.588921 
1488854995.690316, 1488854995.690316, -1.184692, +0.145142, -0.300171, +13.792585, -30.998003, +23.435234 
1488854995.694241, 1488854995.694241, -1.184692, +0.145142, -0.300171, +13.792585, -30.998003, +23.435234 
1488854995.697989, 1488854995.697989, -1.184692, +0.145142, -0.300171, +13.792585, -30.998003, +23.435234 
1488854995.701737, 1488854995.701737, -1.208130, +0.047729, -0.300049, +16.142439, -28.526079, +24.701714 
1488854995.705627, 1488854995.705627, -1.208130, +0.047729, -0.300049, +16.142439, -28.526079, +24.701714 
1488854995.709798, 1488854995.709798, -1.208130, +0.047729, -0.300049, +16.142439, -28.526079, +24.701714 
1488854995.713818, 1488854995.713818, -1.208130, +0.047729, -0.300049, +16.050886, -26.908648, +26.654839 
1488854995.717780, 1488854995.717780, -1.208130, +0.047729, -0.300049, +16.050886, -26.908648, +26.654839 
1488854995.721722, 1488854995.721722, -0.889038, +0.280762, -0.438843, +16.050886, -26.908648, +23.465752 
1488854995.725581, 1488854995.725581, -0.889038, +0.280762, -0.438843, +16.310286, -22.514116, +23.465752 
1488854995.729333, 1488854995.729333, -0.889038, +0.280762, -0.438843, +16.310286, -22.514116, +23.465752 
1488854995.733089, 1488854995.733089, -0.889038, +0.280762, -0.438843, +16.310286, -19.981157, +18.170952 
1488854995.737036, 1488854995.737036, -0.889038, +0.280762, -0.438843, +12.159895, -19.981157, +18.170952 
1488854995.740984, 1488854995.740984, -0.962036, +0.259399, -0.317993, +12.159895, -19.981157, +18.170952 
1488854995.744862, 1488854995.744862, -0.962036, +0.259399, -0.317993, +10.145735, -20.606768, +14.035820 
1488854995.748613, 1488854995.748613, -0.962036, +0.259399, -0.317993, +10.145735, -20.606768, +14.035820 
1488854995.752475, 1488854995.752475, -0.962036, +0.259399, -0.317993, +10.145735, -20.606768, +14.035820 
1488854995.756242, 1488854995.756242, -0.962036, +0.259399, -0.317993, +10.374617, -18.119585, +12.204765 
1488854995.759997, 1488854995.759997, -0.962036, +0.245605, -0.265625, +10.374617, -18.119585, +12.204765 
1488854995.763837, 1488854995.763837, -1.076416, +0.245605, -0.265625, +10.374617, -18.119585, +12.204765 
1488854995.767596, 1488854995.767596, -1.076416, +0.245605, -0.265625, +7.216047, -17.081987, +10.373711 
1488854995.771461, 1488854995.771461, -1.076416, +0.245605, -0.265625, +7.216047, -17.081987, +10.373711 
1488854995.775422, 1488854995.775422, -1.076416, +0.245605, -0.265625, +7.216047, -17.081987, +10.373711 
1488854995.779177, 1488854995.779177, -1.076416, +0.245605, -0.265625, +0.456404, -16.288530, +6.589531 
1488854995.782922, 1488854995.782922, -1.143677, +0.148926, -0.262451, +0.456404, -16.288530, +6.589531 
1488854995.786994, 1488854995.786994, -1.143677, +0.148926, -0.262451, +0.456404, -18.470537, +6.055473 
1488854995.791351, 1488854995.791351, -1.143677, +0.148926, -0.262451, -2.641130, -18.470537, +6.055473 
1488854995.795103, 1488854995.795103, -1.143677, +0.148926, -0.262451, -2.641130, -18.470537, +6.055473 
1488854995.798843, 1488854995.798843, -1.143677, +0.148926, -0.262451, -1.862932, -18.913042, +7.932304 
1488854995.802581, 1488854995.802581, -1.106079, +0.030151, -0.326660, -1.862932, -18.913042, +7.932304 
1488854995.806372, 1488854995.806372, -1.106079, +0.030151, -0.326660, -1.862932, -18.913042, +7.932304 
1488854995.810105, 1488854995.810105, -1.106079, +0.030151, -0.326660, -0.062395, -20.866167, +11.823296 
1488854995.813874, 1488854995.813874, -1.106079, +0.030151, -0.326660, -0.062395, -20.866167, +11.823296 
1488854995.817613, 1488854995.817613, -1.106079, +0.030151, -0.326660, -0.062395, -20.866167, +11.823296 
1488854995.821360, 1488854995.821360, -1.162964, +0.184204, -0.274902, +0.990461, -23.353350, +15.699028 
1488854995.825114, 1488854995.825114, -1.162964, +0.184204, -0.274902, +0.990461, -23.353350, +15.699028 
1488854995.828847, 1488854995.828847, -1.162964, +0.184204, -0.274902, +0.990461, -23.353350, +15.699028 
1488854995.832589, 1488854995.832589, -1.162964, +0.184204, -0.274902, -2.900530, -27.915728, +18.323540 
1488854995.836467, 1488854995.836467, -1.162964, +0.184204, -0.274902, -2.900530, -27.915728, +18.323540 
1488854995.840210, 1488854995.840210, -1.149658, +0.179199, -0.398560, -2.900530, -27.915728, +18.323540 
1488854995.843982, 1488854995.843982, -1.149658, +0.179199, -0.398560, -9.293962, -32.905350, +18.384575 
1488854995.847729, 1488854995.847729, -1.149658, +0.179199, -0.398560, -9.293962, -32.905350, +18.384575 
1488854995.851456, 1488854995.851456, -1.149658, +0.179199, -0.398560, -9.293962, -32.905350, +18.384575 
1488854995.855231, 1488854995.855231, -1.149658, +0.179199, -0.398560, -14.695574, -37.666092, +18.842339 
1488854995.858980, 1488854995.858980, -1.149658, +0.179199, -0.410278, -14.695574, -37.666092, +18.842339 
1488854995.862724, 1488854995.862724, -1.089722, +0.162354, -0.410278, -14.695574, -37.666092, +18.842339 
1488854995.866549, 1488854995.866549, -1.089722, +0.162354, -0.410278, -18.769670, -40.122757, +20.337700 
1488854995.870292, 1488854995.870292, -1.089722, +0.162354, -0.410278, -18.769670, -40.122757, +20.337700 
1488854995.874119, 1488854995.874119, -1.089722, +0.162354, -0.410278, -18.769670, -40.122757, +22.214531 
1488854995.878066, 1488854995.878066, -1.089722, +0.162354, -0.410278, -20.341326, -41.847000, +22.214531 
1488854995.882021, 1488854995.882021, -1.096802, +0.182861, -0.309082, -20.341326, -41.847000, +22.214531 
1488854995.885976, 1488854995.885976, -1.096802, +0.182861, -0.309082, -20.356585, -42.838821, +22.367119 
1488854995.889918, 1488854995.889918, -1.096802, +0.182861, -0.309082, -20.356585, -42.838821, +22.367119 
1488854995.893878, 1488854995.893878, -1.096802, +0.182861, -0.309082, -20.356585, -42.838821, +22.367119 
1488854995.897814, 1488854995.897814, -1.096802, +0.182861, -0.309082, -18.098284, -43.235550, +23.892998 
1488854995.901933, 1488854995.901933, -1.104614, +0.187866, -0.241089, -18.098284, -43.235550, +23.892998 
1488854995.906297, 1488854995.906297, -1.104614, +0.187866, -0.241089, -18.098284, -43.235550, +23.892998 
1488854995.910252, 1488854995.910252, -1.104614, +0.187866, -0.241089, -15.031267, -43.510208, +24.945854 
1488854995.914150, 1488854995.914150, -1.104614, +0.187866, -0.241089, -15.031267, -43.510208, +24.945854 
1488854995.917899, 1488854995.917899, -1.104614, +0.187866, -0.241089, -15.031267, -43.510208, +26.273369 
1488854995.921658, 1488854995.921658, -1.083862, +0.122559, -0.214478, -13.581682, -44.990311, +26.273369 
1488854995.925538, 1488854995.925538, -1.083862, +0.122559, -0.214478, -13.581682, -44.990311, +26.273369 
1488854995.929491, 1488854995.929491, -1.083862, +0.122559, -0.214478, -12.162615, -45.707474, +26.410698 
1488854995.933464, 1488854995.933464, -1.083862, +0.122559, -0.214478, -12.162615, -45.707474, +26.410698 
1488854995.937220, 1488854995.937220, -1.083862, +0.122559, -0.214478, -12.162615, -45.707474, +26.410698 
