Calculating the offsets...
timestamp_before, timestamp_after, accel_x, accel_y, accel_z, gyro_x, gyro_y, gyro_z
1488855139.316530, 1488855139.316530, -0.263794, +0.080200, +0.714600, +24.668476, -98.389580, -1.987421 
1488855139.328956, 1488855139.328956, -0.263794, +0.111450, +0.195068, +40.293476, -62.745049, -24.066889 
1488855139.333789, 1488855139.333789, +0.053223, +0.120361, +0.195068, +39.576313, -62.745049, -24.066889 
1488855139.337749, 1488855139.337749, +0.053223, +0.120361, +0.195068, +39.576313, -62.745049, -24.066889 
1488855139.341695, 1488855139.341695, +0.053223, +0.120361, +0.195068, +57.337543, -45.899345, -34.366570 
1488855139.345703, 1488855139.345703, +0.053223, +0.120361, +0.195068, +57.337543, -45.899345, -34.366570 
1488855139.349647, 1488855139.349647, +0.240723, -0.034790, +0.020020, +57.337543, -45.899345, -34.366570 
1488855139.353572, 1488855139.353572, +0.231934, -0.034790, +0.020020, +76.304214, -20.859671, -41.187248 
1488855139.357326, 1488855139.357326, +0.231934, -0.034790, +0.020020, +76.304214, -20.859671, -41.187248 
1488855139.361080, 1488855139.361080, +0.231934, -0.034790, +0.020020, +76.304214, -20.859671, -41.187248 
1488855139.365061, 1488855139.365061, +0.231934, -0.034790, +0.020020, +78.791397, +12.358713, -48.465691 
1488855139.368836, 1488855139.368836, +0.231934, -0.034790, -0.244141, +78.791397, +12.358713, -48.465691 
1488855139.372583, 1488855139.372583, +0.353638, +0.031738, -0.244141, +78.791397, +12.358713, -56.232414 
1488855139.376653, 1488855139.376653, +0.353638, +0.031738, -0.244141, +65.531509, +47.255562, -56.232414 
1488855139.380595, 1488855139.380595, +0.353638, +0.031738, -0.244141, +65.531509, +47.255562, -56.232414 
1488855139.384556, 1488855139.384556, +0.353638, +0.031738, -0.244141, +48.823139, +77.651070, -62.610588 
1488855139.388495, 1488855139.388495, +0.353638, +0.031738, -0.181641, +48.823139, +77.651070, -62.610588 
1488855139.392439, 1488855139.392439, +0.223877, +0.123047, -0.164673, +48.823139, +77.651070, -62.610588 
1488855139.396394, 1488855139.396394, +0.223877, +0.123047, -0.164673, +33.976337, +97.884224, -68.286858 
1488855139.400339, 1488855139.400339, +0.223877, +0.123047, -0.164673, +33.976337, +97.884224, -68.286858 
1488855139.404295, 1488855139.404295, +0.223877, +0.123047, -0.164673, +33.976337, +97.884224, -68.286858 
1488855139.408240, 1488855139.408240, +0.223877, +0.123047, -0.039673, +21.235249, +111.891792, -73.780022 
1488855139.412188, 1488855139.412188, +0.182983, +0.134888, -0.045776, +21.235249, +111.891792, -73.780022 
1488855139.416058, 1488855139.416058, +0.182983, +0.134888, -0.045776, +21.235249, +111.891792, -77.686272 
1488855139.419805, 1488855139.419805, +0.182983, +0.134888, -0.045776, +19.282124, +125.685738, -78.510246 
1488855139.423577, 1488855139.423577, +0.182983, +0.134888, -0.045776, +19.282124, +125.685738, -78.510246 
1488855139.427459, 1488855139.427459, +0.182983, +0.134888, -0.045776, +19.282124, +141.707474, -83.667717 
1488855139.431438, 1488855139.431438, +0.217529, +0.033569, -0.062134, +31.306049, +141.707474, -83.667717 
1488855139.435347, 1488855139.435347, +0.217529, +0.033569, -0.062134, +31.306049, +141.707474, -83.667717 
1488855139.439277, 1488855139.439277, +0.217529, +0.033569, -0.062134, +46.259663, +158.446365, -90.244255 
1488855139.443255, 1488855139.443255, +0.217529, +0.033569, -0.062134, +46.259663, +158.446365, -90.244255 
1488855139.447178, 1488855139.447178, +0.217529, +0.033569, -0.062134, +46.259663, +158.446365, -90.244255 
1488855139.451099, 1488855139.451099, +0.118530, -0.000732, -0.145996, +54.880878, +173.567825, -97.492180 
1488855139.455019, 1488855139.455019, +0.118530, -0.000732, -0.145996, +54.880878, +173.567825, -97.492180 
1488855139.458937, 1488855139.458937, +0.118530, -0.000732, -0.145996, +54.880878, +173.567825, -97.492180 
1488855139.462853, 1488855139.462853, +0.118530, -0.000732, -0.145996, +55.628559, +186.888748, -105.594597 
1488855139.466718, 1488855139.466718, +0.118530, -0.000732, -0.145996, +55.628559, +186.888748, -105.594597 
1488855139.470464, 1488855139.470464, -0.016357, -0.031494, -0.244629, +55.628559, +186.888748, -117.313347 
1488855139.474530, 1488855139.474530, -0.016357, -0.031494, -0.244629, +55.155537, +200.041824, -114.154778 
1488855139.478286, 1488855139.478286, -0.016357, -0.031494, -0.244629, +55.155537, +200.041824, -114.154778 
1488855139.482033, 1488855139.482033, -0.016357, -0.031494, -0.244629, +51.249287, +214.629227, -122.898064 
1488855139.486048, 1488855139.486048, -0.016357, -0.031494, -0.244629, +53.034565, +214.629227, -122.898064 
1488855139.489988, 1488855139.489988, -0.121338, -0.042603, -0.370239, +53.034565, +214.629227, -122.898064 
1488855139.493956, 1488855139.493956, -0.121338, -0.042603, -0.370239, +50.242207, +228.713089, -129.962891 
1488855139.497907, 1488855139.497907, -0.121338, -0.042603, -0.370239, +50.242207, +228.713089, -129.962891 
1488855139.501853, 1488855139.501853, -0.121338, -0.042603, -0.370239, +50.242207, +228.713089, -129.962891 
1488855139.505815, 1488855139.505815, -0.121338, -0.042603, -0.370239, +47.358295, +241.240555, -135.044067 
1488855139.509763, 1488855139.509763, -0.287231, -0.048462, -0.385742, +47.358295, +241.240555, -135.044067 
1488855139.513694, 1488855139.513694, -0.287231, -0.048462, -0.385742, +47.358295, +241.240555, -135.044067 
1488855139.517440, 1488855139.517440, -0.287231, -0.048462, -0.385742, +43.909809, +250.945145, -138.904541 
1488855139.521189, 1488855139.521189, -0.287231, -0.048462, -0.385742, +43.909809, +250.945145, -138.904541 
1488855139.525106, 1488855139.525106, -0.287231, -0.048462, -0.385742, +43.909809, +250.945145, -141.086548 
1488855139.529053, 1488855139.529053, -0.452148, -0.024414, -0.338501, +42.811176, +259.978333, -141.086548 
1488855139.533002, 1488855139.533002, -0.452148, -0.024414, -0.338501, +42.811176, +259.978333, -141.086548 
1488855139.536953, 1488855139.536953, -0.452148, -0.024414, -0.338501, +45.450947, +269.759216, -143.054932 
1488855139.541008, 1488855139.541008, -0.452148, -0.024414, -0.338501, +45.450947, +269.759216, -143.054932 
1488855139.544996, 1488855139.544996, -0.452148, -0.024414, -0.338501, +45.450947, +269.759216, -143.054932 
1488855139.549004, 1488855139.549004, -0.622559, +0.009399, -0.367310, +50.181171, +282.301941, -144.885986 
1488855139.553592, 1488855139.553592, -0.622559, +0.009399, -0.367310, +50.181171, +282.301941, -144.885986 
1488855139.557355, 1488855139.557355, -0.622559, +0.009399, -0.367310, +50.181171, +282.301941, -144.885986 
1488855139.561106, 1488855139.561106, -0.622559, +0.009399, -0.367310, +57.017109, +295.699158, -147.479980 
1488855139.564940, 1488855139.564940, -0.622559, +0.009399, -0.367310, +57.017109, +295.699158, -147.479980 
1488855139.568965, 1488855139.568965, -0.955811, +0.001099, -0.426636, +57.017109, +311.324158, -149.967163 
1488855139.572908, 1488855139.572908, -0.955811, +0.001099, -0.426636, +62.021992, +310.362854, -149.967163 
1488855139.576897, 1488855139.576897, -0.955811, +0.001099, -0.426636, +62.021992, +310.362854, -149.967163 
1488855139.580841, 1488855139.580841, -0.955811, +0.001099, -0.426636, +70.719498, +325.560608, -150.424927 
1488855139.584719, 1488855139.584719, -0.955811, +0.001099, -0.426636, +70.719498, +325.560608, -150.424927 
1488855139.588471, 1488855139.588471, -1.429932, +0.170044, -0.520142, +70.719498, +325.560608, -150.424927 
1488855139.592220, 1488855139.592220, -1.429932, +0.170044, -0.520142, +85.551041, +341.490784, -149.661987 
1488855139.595996, 1488855139.595996, -1.429932, +0.170044, -0.520142, +85.551041, +341.490784, -149.661987 
1488855139.599746, 1488855139.599746, -1.429932, +0.170044, -0.520142, +85.551041, +341.490784, -149.661987 
1488855139.603594, 1488855139.603594, -1.429932, +0.170044, -0.520142, +101.923721, +356.200256, -149.616211 
1488855139.607345, 1488855139.607345, -1.429932, +0.468628, -0.606812, +101.923721, +356.200256, -149.616211 
1488855139.611098, 1488855139.611098, -2.168579, +0.468628, -0.606812, +101.923721, +356.200256, -149.616211 
1488855139.615044, 1488855139.615044, -2.168579, +0.468628, -0.606812, +107.249039, +365.035095, -149.417847 
1488855139.619104, 1488855139.619104, -2.168579, +0.468628, -0.606812, +107.249039, +365.035095, -149.417847 
1488855139.623061, 1488855139.623061, -2.168579, +0.468628, -0.606812, +107.249039, +365.035095, -145.404785 
1488855139.626999, 1488855139.626999, -2.168579, +0.781128, -0.325195, +105.631607, +362.944641, -145.404785 
1488855139.630949, 1488855139.630949, -3.076294, +0.774170, -0.325195, +105.631607, +362.944641, -145.404785 
1488855139.634908, 1488855139.634908, -3.076294, +0.774170, -0.325195, +117.289322, +351.363220, -136.203735 
1488855139.638848, 1488855139.638848, -3.076294, +0.774170, -0.325195, +117.289322, +351.363220, -136.203735 
1488855139.642791, 1488855139.642791, -3.076294, +0.774170, -0.325195, +117.289322, +351.363220, -136.203735 
1488855139.646564, 1488855139.646564, -3.076294, +0.774170, +0.073120, +166.468399, +325.530090, -120.243034 
1488855139.650307, 1488855139.650307, -3.708740, +1.005981, +0.073120, +166.468399, +325.530090, -120.243034 
1488855139.654133, 1488855139.654133, -3.708740, +1.005981, +0.073120, +166.468399, +325.530090, -120.243034 
1488855139.658054, 1488855139.658054, -3.708740, +1.005981, +0.073120, +154.413956, +295.714417, -129.474609 
1488855139.661969, 1488855139.661969, -3.708740, +1.005981, +0.073120, +154.413956, +295.714417, -129.474609 
1488855139.665961, 1488855139.665961, -3.708740, +1.005981, +0.073120, +154.413956, +295.714417, -129.474609 
1488855139.670051, 1488855139.670051, -3.221680, +1.488159, +0.884399, +94.507950, +251.555496, -113.208733 
1488855139.673976, 1488855139.673976, -3.221680, +1.488159, +0.884399, +94.507950, +251.555496, -113.208733 
1488855139.678003, 1488855139.678003, -3.221680, +1.488159, +0.884399, +94.507950, +192.061478, -56.659660 
1488855139.681929, 1488855139.681929, -3.221680, +1.488159, +0.884399, +88.724869, +192.061478, -56.659660 
1488855139.685874, 1488855139.685874, -3.221680, +1.488159, +0.884399, +88.724869, +192.061478, -56.659660 
1488855139.689838, 1488855139.689838, -2.963135, +1.918823, +2.011597, +100.825089, +129.225784, -18.146479 
1488855139.693787, 1488855139.693787, -2.963135, +1.918823, +2.011597, +100.825089, +129.225784, -18.146479 
1488855139.697739, 1488855139.697739, -2.963135, +1.918823, +2.011597, +100.825089, +129.225784, -18.146479 
1488855139.701691, 1488855139.701691, -2.963135, +1.918823, +2.011597, +81.995743, +39.198921, +0.255621 
1488855139.705544, 1488855139.705544, -2.963135, +1.918823, +2.011597, +81.995743, +39.198921, +0.255621 
1488855139.709293, 1488855139.709293, -2.261353, +1.402710, +1.980225, +81.995743, +39.198921, +0.255621 
1488855139.713117, 1488855139.713117, -2.261353, +1.402710, +1.980225, +46.992085, -46.143486, +31.383551 
1488855139.716866, 1488855139.716866, -2.261353, +1.402710, +1.980225, +46.992085, -46.143486, +31.383551 
1488855139.720619, 1488855139.720619, -2.261353, +1.402710, +1.980225, +46.992085, -46.143486, +31.383551 
1488855139.724617, 1488855139.724617, -2.261353, +1.402710, +1.980225, +31.962177, -85.312798, +72.124519 
1488855139.728570, 1488855139.728570, -0.868896, -0.036255, -0.853638, +31.962177, -85.312798, +72.124519 
1488855139.732521, 1488855139.732521, -0.868896, -0.036255, -0.853638, +31.962177, -97.596123, +72.139778 
1488855139.736510, 1488855139.736510, -0.868896, -0.036255, -0.853638, +31.138203, -97.596123, +72.139778 
1488855139.740463, 1488855139.740463, -0.868896, -0.036255, -0.853638, +31.138203, -97.596123, +72.139778 
1488855139.744352, 1488855139.744352, -0.868896, -0.036255, -0.853638, +6.098530, -11.948538, -3.086054 
1488855139.748101, 1488855139.748101, -1.068481, -2.435913, -3.040894, +6.098530, -11.948538, -3.086054 
1488855139.751842, 1488855139.751842, -1.068481, -2.435913, -3.040894, +6.098530, -11.948538, -3.086054 
1488855139.755727, 1488855139.755727, -1.068481, -2.435913, -3.040894, -24.541119, +20.644236, -24.661982 
1488855139.759648, 1488855139.759648, -1.068481, -2.435913, -3.040894, -24.541119, +20.644236, -24.661982 
1488855139.763579, 1488855139.763579, -1.068481, -2.435913, -3.040894, -24.541119, +20.644236, -24.661982 
1488855139.767689, 1488855139.767689, -3.115967, +0.624512, +2.319824, -39.479473, -123.825981, -8.686029 
1488855139.771640, 1488855139.771640, -3.115967, +0.624512, +2.319824, -39.479473, -123.825981, -8.686029 
1488855139.775593, 1488855139.775593, -3.115967, +0.624512, +2.319824, -39.479473, -123.825981, -3.711664 
1488855139.779528, 1488855139.779528, -3.115967, +0.624512, +2.319824, -86.827499, -237.534470, -3.711664 
1488855139.783489, 1488855139.783489, -3.115967, +0.624512, +2.319824, -86.827499, -237.534470, -3.711664 
1488855139.787428, 1488855139.787428, -1.210571, -0.056274, -1.551636, -101.552231, -171.311325, +21.389044 
1488855139.791376, 1488855139.791376, -1.210571, -0.056274, -1.551636, -101.552231, -171.311325, +21.389044 
1488855139.795216, 1488855139.795216, -1.210571, -0.056274, -1.551636, -101.552231, -171.311325, +21.389044 
1488855139.798965, 1488855139.798965, -1.210571, -0.056274, -1.551636, -142.567856, -90.744926, +66.524544 
1488855139.802708, 1488855139.802708, -1.210571, -0.056274, -1.551636, -142.567856, -90.744926, +66.524544 
1488855139.806693, 1488855139.806693, -2.164795, +0.524536, +0.276733, -142.567856, -90.744926, +66.524544 
1488855139.810645, 1488855139.810645, -2.164795, +0.524536, +0.276733, -112.126572, -100.098564, +140.285522 
1488855139.814600, 1488855139.814600, -2.164795, +0.524536, +0.276733, -112.126572, -100.098564, +140.285522 
1488855139.818545, 1488855139.818545, -2.164795, +0.524536, +0.276733, -112.126572, -100.098564, +140.285522 
1488855139.822484, 1488855139.822484, -2.164795, +0.524536, +0.276733, +5.366108, -100.373222, +145.397217 
1488855139.826432, 1488855139.826432, -1.322510, -0.622314, -0.192383, +5.366108, -100.373222, +145.397217 
1488855139.830374, 1488855139.830374, -1.322510, -0.622314, -0.192383, +5.366108, -74.646904, +108.120003 
1488855139.834334, 1488855139.834334, -1.322510, -0.622314, -0.192383, +63.837788, -74.646904, +108.120003 
1488855139.838280, 1488855139.838280, -1.322510, -0.622314, -0.192383, +63.837788, -74.646904, +108.120003 
1488855139.842228, 1488855139.842228, -1.322510, -0.622314, -0.192383, +81.492203, -92.621758, +96.172371 
1488855139.846033, 1488855139.846033, -0.950439, +0.515747, +0.131104, +81.492203, -92.621758, +96.172371 
1488855139.849782, 1488855139.849782, -0.950439, +0.515747, +0.131104, +81.492203, -92.621758, +96.172371 
1488855139.853563, 1488855139.853563, -0.950439, +0.515747, +0.131104, +98.887222, -96.726372, +83.782234 
1488855139.857487, 1488855139.857487, -0.950439, +0.515747, +0.131104, +98.887222, -96.726372, +83.782234 
1488855139.861417, 1488855139.861417, -0.950439, +0.515747, +0.131104, +98.887222, -96.726372, +83.782234 
1488855139.865323, 1488855139.865323, -0.950439, +0.728638, -0.446411, +96.781509, -85.373833, +67.470589 
1488855139.869298, 1488855139.869298, -0.718628, +0.728638, -0.446411, +96.781509, -85.373833, +67.470589 
1488855139.873282, 1488855139.873282, -0.718628, +0.728638, -0.446411, +96.781509, -85.373833, +47.939339 
1488855139.877220, 1488855139.877220, -0.718628, +0.728638, -0.446411, +57.978413, -79.804375, +47.161140 
1488855139.881167, 1488855139.881167, -0.718628, +0.728638, -0.446411, +57.978413, -79.804375, +47.161140 
1488855139.885120, 1488855139.885120, -0.718628, +0.399048, -0.167969, +15.101215, -82.795097, +30.559576 
1488855139.889068, 1488855139.889068, -1.151978, +0.399048, -0.167969, +15.101215, -82.795097, +30.559576 
1488855139.893019, 1488855139.893019, -1.151978, +0.399048, -0.167969, +15.101215, -82.795097, +30.559576 
1488855139.896768, 1488855139.896768, -1.151978, +0.399048, -0.167969, +10.355732, -84.626152, +20.671881 
1488855139.900514, 1488855139.900514, -1.151978, +0.399048, -0.167969, +10.355732, -84.626152, +20.671881 
1488855139.904344, 1488855139.904344, -1.151978, +0.399048, -0.324219, +10.355732, -84.626152, +20.671881 
1488855139.908294, 1488855139.908294, -1.128052, +0.063965, -0.328613, +15.024921, -80.506279, +15.956915 
1488855139.912240, 1488855139.912240, -1.128052, +0.063965, -0.328613, +15.024921, -80.506279, +15.956915 
1488855139.916311, 1488855139.916311, -1.128052, +0.063965, -0.328613, +15.024921, -80.506279, +15.956915 
1488855139.920253, 1488855139.920253, -1.128052, +0.063965, -0.328613, +10.493061, -62.165215, +11.592901 
1488855139.924209, 1488855139.924209, -1.128052, +0.063965, -0.234863, +10.493061, -62.165215, +11.592901 
1488855139.928152, 1488855139.928152, -1.187256, +0.203003, -0.227173, +10.493061, -46.540215, +13.378180 
1488855139.932100, 1488855139.932100, -1.187256, +0.203003, -0.227173, +5.045673, -49.485161, +13.378180 
1488855139.936096, 1488855139.936096, -1.187256, +0.203003, -0.227173, +5.045673, -49.485161, +13.378180 
1488855139.940041, 1488855139.940041, -1.187256, +0.203003, -0.227173, -4.018047, -38.987114, +4.802740 
1488855139.943950, 1488855139.943950, -1.187256, +0.203003, -0.227173, -4.018047, -38.987114, +4.802740 
1488855139.947690, 1488855139.947690, -1.149414, +0.238403, -0.102783, -4.018047, -38.987114, +4.802740 
1488855139.951433, 1488855139.951433, -1.149414, +0.238403, -0.102783, -16.087749, -34.913017, +1.369513 
1488855139.955335, 1488855139.955335, -1.149414, +0.238403, -0.102783, -16.087749, -34.913017, +1.369513 
1488855139.959285, 1488855139.959285, -1.149414, +0.238403, -0.102783, -16.087749, -34.913017, +1.369513 
1488855139.963397, 1488855139.963397, -1.149414, +0.238403, -0.102783, -13.890484, -30.762625, -3.482782 
1488855139.967276, 1488855139.967276, -1.077026, +0.250854, -0.304688, -13.890484, -30.762625, -3.482782 
1488855139.971239, 1488855139.971239, -1.077026, +0.250854, -0.304688, -13.890484, -22.950125, -3.513300 
1488855139.975705, 1488855139.975705, -1.077026, +0.250854, -0.304688, -8.244732, -24.887991, -3.513300 
1488855139.979448, 1488855139.979448, -1.077026, +0.250854, -0.304688, -8.244732, -24.887991, -3.513300 
1488855139.983265, 1488855139.983265, -1.077026, +0.250854, -0.304688, +0.239155, -23.560476, -2.094233 
1488855139.986999, 1488855139.986999, -0.989746, +0.056519, -0.348999, +0.239155, -23.560476, -2.094233 
1488855139.990739, 1488855139.990739, -0.989746, +0.056519, -0.348999, +0.239155, -23.560476, -2.094233 
1488855139.994482, 1488855139.994482, -0.989746, +0.056519, -0.348999, +6.052753, -16.755056, +0.957525 
1488855139.998226, 1488855139.998226, -0.989746, +0.056519, -0.348999, +6.052753, -16.755056, +0.957525 
1488855140.001968, 1488855140.001968, -0.989746, +0.056519, -0.348999, +6.052753, -16.755056, +0.957525 
1488855140.005768, 1488855140.005768, -1.022705, +0.164185, -0.496948, +15.360615, -17.289114, +6.374395 
1488855140.009505, 1488855140.009505, -1.022705, +0.164185, -0.496948, +15.360615, -17.289114, +6.374395 
1488855140.013288, 1488855140.013288, -1.022705, +0.164185, -0.496948, +15.360615, -17.289114, +6.374395 
1488855140.017032, 1488855140.017032, -1.022705, +0.164185, -0.496948, +16.627094, -14.847708, +4.619635 
1488855140.020773, 1488855140.020773, -1.022705, +0.164185, -0.496948, +16.627094, -14.847708, +4.619635 
1488855140.024711, 1488855140.024711, -1.099854, +0.343262, -0.395630, +16.627094, -14.847708, +4.619635 
1488855140.028458, 1488855140.028458, -1.099854, +0.343262, -0.395630, +3.519794, -19.867849, +0.652349 
1488855140.032205, 1488855140.032205, -1.099854, +0.343262, -0.395630, +3.519794, -19.867849, +0.652349 
1488855140.036241, 1488855140.036241, -1.099854, +0.343262, -0.395630, +3.519794, -19.867849, +0.652349 
1488855140.040188, 1488855140.040188, -1.099854, +0.343262, -0.395630, -12.639263, -25.650930, -3.253901 
1488855140.044095, 1488855140.044095, -1.099854, +0.276489, -0.463867, -12.639263, -25.650930, -3.253901 
1488855140.047843, 1488855140.047843, -1.003418, +0.276489, -0.463867, -12.639263, -25.650930, -5.039179 
1488855140.051586, 1488855140.051586, -1.003418, +0.276489, -0.463867, -30.141094, -31.006765, -5.039179 
1488855140.055495, 1488855140.055495, -1.003418, +0.276489, -0.463867, -30.141094, -31.006765, -5.039179 
1488855140.059437, 1488855140.059437, -1.003418, +0.276489, -0.463867, -45.644024, -38.193657, -2.872431 
1488855140.063377, 1488855140.063377, -1.003418, +0.276489, -0.406738, -45.644024, -38.193657, -2.872431 
1488855140.067231, 1488855140.067231, -1.087891, +0.057495, -0.406738, -45.644024, -38.193657, -2.872431 
1488855140.070979, 1488855140.070979, -1.087891, +0.057495, -0.406738, -47.353008, -48.813774, +3.505743 
1488855140.074822, 1488855140.074822, -1.087891, +0.057495, -0.406738, -47.353008, -48.813774, +3.505743 
1488855140.078769, 1488855140.078769, -1.087891, +0.057495, -0.406738, -47.353008, -48.813774, +3.505743 
1488855140.082711, 1488855140.082711, -1.087891, +0.057495, -0.406738, -43.294170, -55.375053, +10.799444 
1488855140.086706, 1488855140.086706, -1.078979, -0.001709, -0.445312, -43.294170, -55.375053, +10.799444 
1488855140.090722, 1488855140.090722, -1.078979, -0.001709, -0.445312, -43.294170, -55.375053, +10.799444 
1488855140.094611, 1488855140.094611, -1.078979, -0.001709, -0.445312, -31.895855, -57.541801, +20.031012 
1488855140.098360, 1488855140.098360, -1.078979, -0.001709, -0.445312, -31.895855, -57.541801, +20.031012 
1488855140.102118, 1488855140.102118, -1.078979, -0.001709, -0.445312, -31.895855, -57.541801, +26.180304 
1488855140.106036, 1488855140.106036, -1.139404, +0.204834, -0.257080, -17.094830, -57.129814, +26.180304 
1488855140.109982, 1488855140.109982, -1.139404, +0.204834, -0.257080, -17.094830, -57.129814, +26.180304 
1488855140.113941, 1488855140.113941, -1.139404, +0.204834, -0.257080, -11.769512, -56.092216, +30.849493 
1488855140.117884, 1488855140.117884, -1.139404, +0.204834, -0.257080, -11.769512, -56.092216, +30.849493 
1488855140.121828, 1488855140.121828, -1.139404, +0.204834, -0.257080, -11.769512, -56.092216, +30.849493 
1488855140.125652, 1488855140.125652, -1.215454, +0.314209, -0.129883, -18.635967, -56.168510, +28.774298 
1488855140.129401, 1488855140.129401, -1.215454, +0.314209, -0.129883, -18.635967, -56.168510, +28.774298 
1488855140.133315, 1488855140.133315, -1.215454, +0.314209, -0.129883, -18.635967, -56.168510, +28.774298 
1488855140.137067, 1488855140.137067, -1.215454, +0.314209, -0.129883, -29.561260, -56.931450, +23.632086 
1488855140.140816, 1488855140.140816, -1.215454, +0.314209, -0.129883, -29.561260, -56.931450, +23.632086 
1488855140.144719, 1488855140.144719, -1.110840, +0.169434, -0.137695, -29.561260, -56.931450, +23.632086 
1488855140.148466, 1488855140.148466, -1.110840, +0.169434, -0.137695, -38.792828, -59.678032, +18.947638 
1488855140.152210, 1488855140.152210, -1.110840, +0.169434, -0.137695, -38.792828, -59.678032, +18.947638 
1488855140.156149, 1488855140.156149, -1.110840, +0.169434, -0.137695, -38.792828, -59.678032, +18.947638 
1488855140.160096, 1488855140.160096, -1.110840, +0.169434, -0.137695, -38.930157, -62.714531, +17.955816 
1488855140.164087, 1488855140.164087, -1.086792, +0.122925, -0.256592, -38.930157, -62.714531, +17.955816 
1488855140.168033, 1488855140.168033, -1.086792, +0.122925, -0.256592, -35.023907, -64.438774, +19.542730 
1488855140.172179, 1488855140.172179, -1.086792, +0.122925, -0.256592, -33.330181, -64.438774, +19.542730 
1488855140.176205, 1488855140.176205, -1.086792, +0.122925, -0.256592, -33.330181, -64.438774, +19.542730 
1488855140.180216, 1488855140.180216, -1.086792, +0.122925, -0.256592, -22.664288, -67.032768, +23.555792 
1488855140.184520, 1488855140.184520, -1.248535, +0.117676, -0.215698, -22.664288, -67.032768, +23.555792 
1488855140.188476, 1488855140.188476, -1.248535, +0.117676, -0.215698, -22.664288, -67.032768, +23.555792 
1488855140.192421, 1488855140.192421, -1.248535, +0.117676, -0.215698, -16.347149, -71.701958, +26.195562 
1488855140.196219, 1488855140.196219, -1.248535, +0.117676, -0.215698, -16.347149, -71.701958, +26.195562 
1488855140.199968, 1488855140.199968, -1.248535, +0.117676, -0.215698, -16.347149, -71.701958, +30.101812 
1488855140.203764, 1488855140.203764, -1.375854, +0.198364, -0.225586, -9.984234, -76.325371, +28.270758 
1488855140.207715, 1488855140.207715, -1.375854, +0.198364, -0.225586, -9.984234, -76.325371, +28.270758 
1488855140.211661, 1488855140.211661, -1.375854, +0.198364, -0.225586, -9.877422, -81.971123, +31.047857 
1488855140.215582, 1488855140.215582, -1.375854, +0.198364, -0.225586, -9.877422, -81.971123, +31.047857 
1488855140.219332, 1488855140.219332, -1.375854, +0.198364, -0.225586, -9.877422, -81.971123, +31.047857 
1488855140.223076, 1488855140.223076, -1.565308, +0.239258, -0.225586, -9.053448, -88.181450, +33.855476 
1488855140.226828, 1488855140.226828, -1.565308, +0.239258, -0.225586, -9.053448, -88.181450, +33.855476 
1488855140.230570, 1488855140.230570, -1.565308, +0.239258, -0.225586, -9.053448, -88.181450, +33.855476 
1488855140.234385, 1488855140.234385, -1.565308, +0.239258, -0.225586, -9.755352, -94.346001, +37.456551 
1488855140.238140, 1488855140.238140, -1.565308, +0.239258, -0.225586, -9.755352, -94.346001, +37.456551 
1488855140.241887, 1488855140.241887, -1.565308, +0.239258, -0.288086, -9.755352, -94.346001, +37.456551 
1488855140.245787, 1488855140.245787, -1.622192, +0.108887, -0.306274, -16.103008, -100.205376, +40.096321 
1488855140.249545, 1488855140.249545, -1.622192, +0.108887, -0.306274, -16.103008, -100.205376, +40.096321 
1488855140.253333, 1488855140.253333, -1.622192, +0.108887, -0.306274, -16.103008, -100.205376, +40.096321 
1488855140.257272, 1488855140.257272, -1.622192, +0.108887, -0.306274, -21.580914, -109.269096, +43.422737 
1488855140.261224, 1488855140.261224, -1.622192, +0.108887, -0.306274, -21.580914, -109.269096, +43.422737 
1488855140.265180, 1488855140.265180, -1.638428, -0.064087, -0.328125, -21.580914, -109.269096, +47.328987 
1488855140.269121, 1488855140.269121, -1.638428, -0.064087, -0.328125, -22.526958, -118.943169, +46.245613 
1488855140.273076, 1488855140.273076, -1.638428, -0.064087, -0.328125, -22.526958, -118.943169, +46.245613 
1488855140.276819, 1488855140.276819, -1.638428, -0.064087, -0.328125, -22.526958, -127.045586, +50.548592 
1488855140.280572, 1488855140.280572, -1.638428, -0.064087, -0.328125, -19.627789, -127.045586, +50.548592 
1488855140.284436, 1488855140.284436, -1.672241, +0.108154, -0.354370, -19.627789, -127.045586, +50.548592 
1488855140.288181, 1488855140.288181, -1.672241, +0.108154, -0.354370, -22.664288, -133.912033, +53.798714 
1488855140.291922, 1488855140.291922, -1.672241, +0.108154, -0.354370, -22.664288, -133.912033, +53.798714 
1488855140.295791, 1488855140.295791, -1.672241, +0.108154, -0.354370, -22.664288, -133.912033, +53.798714 
1488855140.299787, 1488855140.299787, -1.672241, +0.108154, -0.354370, -33.330181, -139.893478, +53.936043 
1488855140.303707, 1488855140.303707, -1.712280, +0.063965, -0.575073, -33.330181, -139.893478, +53.936043 
1488855140.307671, 1488855140.307671, -1.712280, +0.063965, -0.575073, -33.330181, -139.893478, +53.936043 
1488855140.311616, 1488855140.311616, -1.712280, +0.063965, -0.575073, -45.018414, -145.905441, +52.883186 
1488855140.315567, 1488855140.315567, -1.712280, +0.063965, -0.575073, -45.018414, -145.905441, +52.883186 
1488855140.319513, 1488855140.319513, -1.712280, +0.063965, -0.575073, -45.018414, -145.905441, +60.695686 
1488855140.323471, 1488855140.323471, -2.015259, +0.319458, -0.947754, -52.373150, -152.649826, +57.827034 
1488855140.327421, 1488855140.327421, -2.015259, +0.319458, -0.947754, -52.373150, -152.649826, +57.827034 
1488855140.331363, 1488855140.331363, -2.015259, +0.319458, -0.947754, -75.810654, -155.945724, +58.071175 
1488855140.335209, 1488855140.335209, -2.015259, +0.319458, -0.947754, -75.886948, -155.945724, +58.071175 
1488855140.338959, 1488855140.338959, -2.015259, +0.319458, -0.947754, -75.886948, -155.945724, +58.071175 
1488855140.342704, 1488855140.342704, -2.153687, +0.279907, -1.092285, -109.074814, -160.736984, +55.217781 
1488855140.346470, 1488855140.346470, -2.153687, +0.279907, -1.092285, -109.074814, -160.736984, +55.217781 
1488855140.350223, 1488855140.350223, -2.153687, +0.279907, -1.092285, -109.074814, -160.736984, +55.217781 
1488855140.354013, 1488855140.354013, -2.153687, +0.279907, -1.092285, -129.674179, -165.390915, +56.331673 
1488855140.357767, 1488855140.357767, -2.153687, +0.279907, -1.092285, -129.674179, -165.390915, +56.331673 
1488855140.361621, 1488855140.361621, -2.153687, -0.219116, -1.562744, -129.674179, -165.390915, +56.331673 
1488855140.365631, 1488855140.365631, -1.915405, -0.219116, -1.562744, -142.491562, -161.225266, +52.318611 
1488855140.369577, 1488855140.369577, -1.915405, -0.219116, -1.562744, -142.491562, -161.225266, +52.318611 
1488855140.373528, 1488855140.373528, -1.915405, -0.219116, -1.562744, -142.491562, -161.225266, +52.318611 
1488855140.377473, 1488855140.377473, -1.915405, -0.219116, -1.562744, -158.498032, -156.693405, +39.882698 
1488855140.381422, 1488855140.381422, -1.915405, -0.122803, -0.439087, -158.498032, -156.693405, +39.882698 
1488855140.385388, 1488855140.385388, -2.257935, -0.122803, -0.439087, -158.498032, -168.412155, +36.098518 
1488855140.389332, 1488855140.389332, -2.257935, -0.122803, -0.439087, -169.347031, -168.152756, +36.098518 
1488855140.393278, 1488855140.393278, -2.257935, -0.122803, -0.439087, -169.347031, -168.152756, +36.098518 
1488855140.397027, 1488855140.397027, -2.257935, -0.122803, -0.439087, -165.349228, -170.502609, +45.101204 
1488855140.400774, 1488855140.400774, -2.257935, -0.122803, -0.529785, -165.349228, -170.502609, +45.101204 
1488855140.404600, 1488855140.404600, -2.129517, +0.343872, -0.529785, -165.349228, -170.502609, +45.101204 
1488855140.408522, 1488855140.408522, -2.129517, +0.343872, -0.529785, -154.195053, -160.630173, +53.966560 
1488855140.412445, 1488855140.412445, -2.129517, +0.343872, -0.529785, -154.195053, -160.630173, +53.966560 
1488855140.416380, 1488855140.416380, -2.129517, +0.343872, -0.529785, -154.195053, -160.630173, +53.966560 
1488855140.420600, 1488855140.420600, -2.129517, +0.343872, -0.189575, -150.426132, -147.171921, +53.310432 
1488855140.424907, 1488855140.424907, -1.696533, +0.365479, -0.189575, -150.426132, -147.171921, +53.310432 
1488855140.428797, 1488855140.428797, -1.696533, +0.365479, -0.189575, -150.426132, -147.171921, +42.659798 
1488855140.432677, 1488855140.432677, -1.696533, +0.365479, -0.189575, -118.550522, -135.727829, +42.659798 
1488855140.436635, 1488855140.436635, -1.696533, +0.365479, -0.189575, -118.550522, -135.727829, +42.659798 
1488855140.440580, 1488855140.440580, -1.696533, +0.115479, -0.301636, -41.554668, -124.482109, +40.981331 
1488855140.444472, 1488855140.444472, -1.087891, +0.114502, -0.301636, -41.554668, -124.482109, +40.981331 
1488855140.448210, 1488855140.448210, -1.087891, +0.114502, -0.301636, -41.554668, -124.482109, +40.981331 
1488855140.451962, 1488855140.451962, -1.087891, +0.114502, -0.301636, -3.972271, -113.648369, +29.232061 
1488855140.455830, 1488855140.455830, -1.087891, +0.114502, -0.301636, -3.972271, -113.648369, +29.232061 
1488855140.459583, 1488855140.459583, -1.087891, +0.114502, -0.301636, -3.972271, -113.648369, +29.232061 
1488855140.463331, 1488855140.463331, -1.322021, +0.567871, +1.430664, -0.127056, -132.233566, +17.742193 
1488855140.467078, 1488855140.467078, -1.322021, +0.567871, +1.430664, -0.127056, -132.233566, +17.742193 
1488855140.470830, 1488855140.470830, -1.322021, +0.567871, +1.430664, -0.127056, -132.233566, +17.742193 
1488855140.474734, 1488855140.474734, -1.322021, +0.567871, +1.430664, +28.986713, -135.468430, +15.590704 
1488855140.478476, 1488855140.478476, -1.322021, +0.567871, +1.430664, +28.986713, -135.468430, +15.590704 
1488855140.482221, 1488855140.482221, -0.083008, +0.293823, +0.757690, +28.986713, -135.468430, +15.590704 
1488855140.486090, 1488855140.486090, -0.083008, +0.293823, +0.757690, +63.669941, -98.496391, +2.239264 
1488855140.489843, 1488855140.489843, -0.083008, +0.293823, +0.757690, +63.669941, -98.496391, +2.239264 
1488855140.493664, 1488855140.493664, -0.083008, +0.293823, +0.757690, +63.669941, -98.496391, -9.479486 
1488855140.497588, 1488855140.497588, -0.083008, +0.293823, +0.757690, +66.294449, -62.470390, -11.218988 
1488855140.501515, 1488855140.501515, +0.032837, +0.390869, +0.447510, +66.294449, -62.470390, -11.218988 
1488855140.505477, 1488855140.505477, +0.032837, +0.390869, +0.447510, +62.388203, -32.578423, -18.039667 
1488855140.509513, 1488855140.509513, +0.032837, +0.390869, +0.447510, +64.509171, -32.578423, -18.039667 
1488855140.513477, 1488855140.513477, +0.032837, +0.390869, +0.447510, +64.509171, -32.578423, -18.039667 
1488855140.517396, 1488855140.517396, +0.032837, +0.390869, +0.447510, +68.232315, -3.434134, -26.767694 
1488855140.521317, 1488855140.521317, +0.213135, +0.152588, +0.085205, +68.232315, -3.434134, -26.767694 
1488855140.525280, 1488855140.525280, +0.213135, +0.152588, +0.085205, +68.232315, -3.434134, -26.767694 
1488855140.529203, 1488855140.529203, +0.213135, +0.152588, +0.085205, +74.732559, +28.502512, -32.245598 
1488855140.533159, 1488855140.533159, +0.213135, +0.152588, +0.085205, +74.732559, +28.502512, -32.245598 
1488855140.537050, 1488855140.537050, +0.213135, +0.152588, +0.085205, +74.732559, +28.502512, -32.245598 
1488855140.540887, 1488855140.540887, +0.248657, +0.054321, -0.265259, +81.339615, +57.387398, -31.879389 
1488855140.544884, 1488855140.544884, +0.248657, +0.054321, -0.265259, +81.339615, +57.387398, -31.879389 
1488855140.548826, 1488855140.548826, +0.248657, +0.054321, -0.265259, +81.339615, +83.022163, -32.993279 
1488855140.552771, 1488855140.552771, +0.248657, +0.054321, -0.265259, +79.722183, +83.022163, -32.993279 
1488855140.556725, 1488855140.556725, +0.248657, +0.054321, -0.265259, +79.722183, +83.022163, -32.993279 
1488855140.560669, 1488855140.560669, +0.181885, +0.078003, -0.263062, +68.476456, +105.254219, -38.074455 
1488855140.564624, 1488855140.564624, +0.181885, +0.078003, -0.263062, +68.476456, +105.254219, -38.074455 
1488855140.568579, 1488855140.568579, +0.181885, +0.078003, -0.263062, +68.476456, +105.254219, -38.074455 
1488855140.572527, 1488855140.572527, +0.181885, +0.078003, -0.263062, +52.744648, +120.146797, -49.976311 
1488855140.576340, 1488855140.576340, +0.181885, +0.078003, -0.263062, +52.744648, +120.146797, -49.976311 
1488855140.580093, 1488855140.580093, +0.119385, +0.054443, -0.064941, +52.744648, +120.146797, -49.976311 
1488855140.583887, 1488855140.583887, +0.106323, +0.054443, -0.064941, +36.890766, +130.614334, -65.021477 
1488855140.587647, 1488855140.587647, +0.106323, +0.054443, -0.064941, +36.890766, +130.614334, -65.021477 
1488855140.591398, 1488855140.591398, +0.106323, +0.054443, -0.064941, +36.890766, +130.614334, -65.021477 
1488855140.595308, 1488855140.595308, +0.106323, +0.054443, -0.064941, +27.277729, +140.227371, -77.335320 
1488855140.599059, 1488855140.599059, +0.106323, +0.054443, +0.026733, +27.277729, +140.227371, -77.335320 
1488855140.602812, 1488855140.602812, +0.139282, +0.038452, +0.026733, +27.277729, +140.227371, -86.658440 
1488855140.606841, 1488855140.606841, +0.139282, +0.038452, +0.026733, +29.032490, +151.610428, -86.658440 
1488855140.610786, 1488855140.610786, +0.139282, +0.038452, +0.026733, +29.032490, +151.610428, -86.658440 
1488855140.614746, 1488855140.614746, +0.139282, +0.038452, +0.026733, +38.218281, +166.274124, -93.463860 
1488855140.618687, 1488855140.618687, +0.139282, +0.038452, -0.098267, +38.218281, +166.274124, -93.463860 
1488855140.622639, 1488855140.622639, +0.107788, -0.012573, -0.103882, +38.218281, +166.274124, -93.463860 
1488855140.626593, 1488855140.626593, +0.107788, -0.012573, -0.103882, +45.588276, +182.814651, -101.230583 
1488855140.630532, 1488855140.630532, +0.107788, -0.012573, -0.103882, +45.588276, +182.814651, -101.230583 
1488855140.634419, 1488855140.634419, +0.107788, -0.012573, -0.103882, +45.588276, +182.814651, -101.230583 
1488855140.638174, 1488855140.638174, +0.107788, -0.012573, -0.103882, +49.021503, +199.965530, -110.172234 
1488855140.641927, 1488855140.641927, -0.007568, -0.131958, -0.309448, +49.021503, +199.965530, -110.172234 
1488855140.645713, 1488855140.645713, -0.007568, -0.131958, -0.309448, +49.021503, +199.965530, -110.172234 
1488855140.649464, 1488855140.649464, -0.007568, -0.131958, -0.309448, +50.196430, +216.338211, -120.212517 
1488855140.653284, 1488855140.653284, -0.007568, -0.131958, -0.309448, +50.196430, +216.338211, -120.212517 
1488855140.657344, 1488855140.657344, -0.007568, -0.131958, -0.309448, +50.196430, +228.056961, -129.062622 
1488855140.661516, 1488855140.661516, -0.184204, -0.121460, -0.394409, +49.311420, +230.177933, -129.062622 
1488855140.665898, 1488855140.665898, -0.184204, -0.121460, -0.394409, +49.311420, +230.177933, -129.062622 
1488855140.669846, 1488855140.669846, -0.184204, -0.121460, -0.394409, +47.846577, +241.637283, -133.808105 
1488855140.673798, 1488855140.673798, -0.184204, -0.121460, -0.394409, +47.846577, +241.637283, -133.808105 
1488855140.677741, 1488855140.677741, -0.184204, -0.121460, -0.394409, +47.846577, +241.637283, -133.808105 
1488855140.681684, 1488855140.681684, -0.343384, -0.026489, -0.342407, +45.817158, +251.341873, -135.547607 
1488855140.685505, 1488855140.685505, -0.343384, -0.026489, -0.342407, +45.817158, +251.341873, -135.547607 
1488855140.689255, 1488855140.689255, -0.343384, -0.026489, -0.342407, +45.817158, +251.341873, -135.547607 
1488855140.693023, 1488855140.693023, -0.343384, -0.026489, -0.342407, +44.550678, +259.963074, -136.356323 
1488855140.696772, 1488855140.696772, -0.343384, -0.026489, -0.342407, +44.550678, +259.963074, -136.356323 
1488855140.700524, 1488855140.700524, -0.489624, +0.074951, -0.265015, +44.550678, +259.963074, -136.356323 
1488855140.704291, 1488855140.704291, -0.489624, +0.074951, -0.265015, +44.520161, +269.408264, -137.531250 
1488855140.708047, 1488855140.708047, -0.489624, +0.074951, -0.265015, +44.520161, +269.408264, -137.531250 
1488855140.711802, 1488855140.711802, -0.489624, +0.074951, -0.265015, +44.520161, +269.408264, -138.965576 
1488855140.715714, 1488855140.715714, -0.489624, +0.074951, -0.265015, +46.427509, +280.577698, -138.965576 
1488855140.719465, 1488855140.719465, -0.641724, +0.109497, -0.338623, +46.427509, +280.577698, -138.965576 
1488855140.723372, 1488855140.723372, -0.641724, +0.109497, -0.338623, +48.929951, +293.837585, -141.574829 
1488855140.727122, 1488855140.727122, -0.641724, +0.109497, -0.338623, +48.929951, +293.837585, -141.574829 
1488855140.730872, 1488855140.730872, -0.641724, +0.109497, -0.338623, +48.929951, +293.837585, -141.574829 
1488855140.734731, 1488855140.734731, -0.641724, +0.109497, -0.338623, +49.418232, +309.615173, -143.497437 
1488855140.738679, 1488855140.738679, -1.016724, +0.047241, -0.379639, +49.418232, +309.615173, -143.497437 
1488855140.742625, 1488855140.742625, -1.012939, +0.047241, -0.379639, +49.418232, +309.615173, -143.497437 
1488855140.746588, 1488855140.746588, -1.012939, +0.047241, -0.379639, +53.751728, +323.668518, -142.276733 
1488855140.750532, 1488855140.750532, -1.012939, +0.047241, -0.379639, +53.751728, +323.668518, -142.276733 
1488855140.754489, 1488855140.754489, -1.012939, +0.047241, -0.379639, +53.751728, +323.668518, -142.276733 
1488855140.758434, 1488855140.758434, -1.012939, +0.346313, -0.449341, +64.722794, +336.653748, -139.713257 
1488855140.762371, 1488855140.762371, -1.532349, +0.346313, -0.449341, +64.722794, +336.653748, -139.713257 
1488855140.766329, 1488855140.766329, -1.532349, +0.346313, -0.449341, +64.722794, +352.278748, -134.006470 
1488855140.770281, 1488855140.770281, -1.532349, +0.346313, -0.449341, +88.190811, +350.066223, -134.006470 
1488855140.774247, 1488855140.774247, -1.532349, +0.346313, -0.449341, +88.190811, +350.066223, -134.006470 
1488855140.777998, 1488855140.777998, -1.532349, +0.252563, -0.273682, +104.380386, +353.270569, -132.678955 
1488855140.781870, 1488855140.781870, -2.504150, +0.261597, -0.273682, +104.380386, +353.270569, -132.678955 
1488855140.785900, 1488855140.785900, -2.504150, +0.261597, -0.273682, +104.380386, +353.270569, -132.678955 
1488855140.789850, 1488855140.789850, -2.504150, +0.261597, -0.273682, +103.602188, +340.483704, -131.961792 
1488855140.793803, 1488855140.793803, -2.504150, +0.261597, -0.273682, +103.602188, +340.483704, -131.961792 
1488855140.797752, 1488855140.797752, -2.504150, +0.792847, +0.403320, +103.602188, +340.483704, -131.961792 
1488855140.801693, 1488855140.801693, -3.299805, +0.809570, +0.403320, +107.554214, +320.006409, -123.630486 
1488855140.805752, 1488855140.805752, -3.299805, +0.809570, +0.403320, +107.554214, +320.006409, -123.630486 
1488855140.809694, 1488855140.809694, -3.299805, +0.809570, +0.403320, +107.554214, +320.006409, -117.114983 
1488855140.813661, 1488855140.813661, -3.299805, +0.809570, +0.403320, +120.051163, +303.816833, -117.114983 
1488855140.817412, 1488855140.817412, -3.299805, +0.809570, +0.660522, +120.051163, +303.816833, -117.114983 
1488855140.821165, 1488855140.821165, -3.385986, +1.008423, +0.660522, +131.769913, +278.670349, -113.086662 
1488855140.824917, 1488855140.824917, -3.385986, +1.008423, +0.660522, +128.687637, +278.670349, -113.086662 
1488855140.828661, 1488855140.828661, -3.385986, +1.008423, +0.660522, +128.687637, +278.670349, -113.086662 
1488855140.832414, 1488855140.832414, -3.385986, +1.008423, +0.660522, +130.381363, +233.717972, -103.214226 
1488855140.836297, 1488855140.836297, -3.385986, +1.008423, +0.660522, +130.381363, +233.717972, -103.214226 
1488855140.840043, 1488855140.840043, -2.771362, +1.330078, +0.619385, +130.381363, +233.717972, -103.214226 
1488855140.843987, 1488855140.843987, -2.771362, +1.330078, +0.619385, +129.709976, +175.414139, -82.035027 
1488855140.847939, 1488855140.847939, -2.771362, +1.330078, +0.619385, +129.709976, +175.414139, -82.035027 
1488855140.851882, 1488855140.851882, -2.771362, +1.330078, +0.619385, +129.709976, +175.414139, -82.035027 
1488855140.855830, 1488855140.855830, -2.771362, +1.330078, +0.619385, +124.857681, +114.531563, -45.246086 
1488855140.859773, 1488855140.859773, -2.638916, +1.913208, +1.507202, +124.857681, +114.531563, -45.246086 
1488855140.863729, 1488855140.863729, -2.638916, +1.913208, +1.507202, +124.857681, +114.531563, -45.246086 
1488855140.867671, 1488855140.867671, -2.638916, +1.913208, +1.507202, +99.909561, +61.598824, -4.322016 
1488855140.871614, 1488855140.871614, -2.638916, +1.913208, +1.507202, +99.909561, +61.598824, -4.322016 
1488855140.875445, 1488855140.875445, -2.638916, +1.913208, +1.507202, +99.909561, +6.911325, +29.262579 
1488855140.879190, 1488855140.879190, -2.417114, +1.353638, +1.656860, +55.170795, +6.209421, +29.262579 
1488855140.882932, 1488855140.882932, -2.417114, +1.353638, +1.656860, +55.170795, +6.209421, +29.262579 
1488855140.886907, 1488855140.886907, -2.417114, +1.353638, +1.656860, +15.772602, -56.168510, +54.988899 
1488855140.890848, 1488855140.890848, -2.417114, +1.353638, +1.656860, +15.772602, -56.168510, +54.988899 
1488855140.894796, 1488855140.894796, -2.417114, +1.353638, +1.656860, +15.772602, -56.168510, +54.988899 
1488855140.898741, 1488855140.898741, -0.192505, -2.626953, -3.188843, +24.973652, -70.633842, +40.935555 
1488855140.902806, 1488855140.902806, -0.192505, -2.626953, -3.188843, +24.973652, -70.633842, +40.935555 
1488855140.907090, 1488855140.907090, -0.192505, -2.626953, -3.188843, +24.973652, -70.633842, +40.935555 
1488855140.911039, 1488855140.911039, -0.192505, -2.626953, -3.188843, +29.795429, +2.821970, -22.006952 
1488855140.914912, 1488855140.914912, -0.192505, -2.626953, -3.188843, +29.795429, +2.821970, -22.006952 
1488855140.918653, 1488855140.918653, -2.766846, -0.274292, +0.082397, +29.795429, +2.821970, -4.840815 
1488855140.922405, 1488855140.922405, -2.766846, -0.274292, +0.082397, +4.694721, -11.750174, -4.840815 
1488855140.926339, 1488855140.926339, -2.766846, -0.274292, +0.082397, +4.694721, -11.750174, -4.840815 
1488855140.930282, 1488855140.930282, -2.766846, -0.274292, +0.082397, -39.662579, -162.857956, +24.227179 
1488855140.934223, 1488855140.934223, -2.766846, -0.274292, +0.082397, -39.662579, -162.857956, +24.227179 
1488855140.937972, 1488855140.937972, -1.912720, +0.411255, +0.002075, -39.662579, -162.857956, +24.227179 
1488855140.941730, 1488855140.941730, -1.912720, +0.411255, +0.002075, -102.391464, -220.551437, +25.386847 
1488855140.945487, 1488855140.945487, -1.912720, +0.411255, +0.002075, -102.391464, -220.551437, +25.386847 
1488855140.949238, 1488855140.949238, -1.912720, +0.411255, +0.002075, -102.391464, -220.551437, +25.386847 
1488855140.953162, 1488855140.953162, -1.912720, +0.411255, +0.002075, -115.346176, -137.848801, +32.039680 
1488855140.956935, 1488855140.956935, -1.537720, +0.584961, -0.627075, -115.346176, -137.848801, +32.039680 
1488855140.960684, 1488855140.960684, -1.558228, +0.584961, -0.627075, -115.346176, -137.848801, +32.039680 
1488855140.964577, 1488855140.964577, -1.558228, +0.584961, -0.627075, -140.752060, -89.508965, +86.238899 
1488855140.968332, 1488855140.968332, -1.558228, +0.584961, -0.627075, -140.752060, -89.508965, +86.238899 
1488855140.972085, 1488855140.972085, -1.558228, +0.584961, -0.627075, -140.752060, -89.508965, +86.238899 
1488855140.975991, 1488855140.975991, -1.558228, +0.584961, -0.081787, -74.956161, -103.974297, +142.757446 
1488855140.979943, 1488855140.979943, -1.346191, -0.046265, -0.081787, -74.956161, -103.974297, +142.757446 
1488855140.983905, 1488855140.983905, -1.346191, -0.046265, -0.081787, -74.956161, -103.974297, +126.949348 
1488855140.987856, 1488855140.987856, -1.346191, -0.046265, -0.081787, +14.200947, -97.092583, +126.949348 
1488855140.991800, 1488855140.991800, -1.346191, -0.046265, -0.081787, +14.200947, -97.092583, +126.949348 
1488855140.995623, 1488855140.995623, -1.346191, -0.046265, -0.081787, +50.974628, -71.579887, +93.715706 
1488855140.999370, 1488855140.999370, -1.298462, +0.176147, +0.215454, +50.974628, -71.579887, +93.715706 
1488855141.003214, 1488855141.003214, -1.298462, +0.176147, +0.215454, +50.974628, -71.579887, +93.715706 
1488855141.006992, 1488855141.006992, -1.298462, +0.176147, +0.215454, +74.991959, -98.069145, +85.659065 
1488855141.010736, 1488855141.010736, -1.298462, +0.176147, +0.215454, +74.991959, -98.069145, +85.659065 
1488855141.014594, 1488855141.014594, -1.298462, +0.176147, +0.215454, +74.991959, -98.069145, +85.659065 
1488855141.018351, 1488855141.018351, -0.895508, +0.691406, -0.295410, +82.941788, -97.626640, +69.271126 
1488855141.022339, 1488855141.022339, -0.895508, +0.691406, -0.295410, +82.941788, -97.626640, +69.271126 
1488855141.026708, 1488855141.026708, -0.895508, +0.691406, -0.295410, +82.941788, -97.626640, +69.271126 
1488855141.030656, 1488855141.030656, -0.895508, +0.691406, -0.295410, +62.388203, -93.201591, +50.151863 
1488855141.034612, 1488855141.034612, -0.895508, +0.691406, -0.295410, +62.388203, -93.201591, +50.151863 
1488855141.038558, 1488855141.038558, -1.087646, +0.646973, -0.198242, +62.388203, -89.295341, +32.482185 
1488855141.042502, 1488855141.042502, -1.087646, +0.646973, -0.198242, +26.118061, -92.743828, +32.482185 
1488855141.046496, 1488855141.046496, -1.087646, +0.646973, -0.198242, +26.118061, -92.743828, +32.482185 
1488855141.050436, 1488855141.050436, -1.087646, +0.646973, -0.198242, +3.382465, -95.276787, +26.577032 
1488855141.054326, 1488855141.054326, -1.087646, +0.646973, -0.198242, +3.382465, -95.276787, +26.577032 
1488855141.058066, 1488855141.058066, -1.104736, +0.023560, -0.124878, +3.382465, -95.276787, +26.577032 
1488855141.061810, 1488855141.061810, -1.104736, +0.023560, -0.124878, +11.484882, -88.654472, +20.061529 
1488855141.065615, 1488855141.065615, -1.104736, +0.023560, -0.124878, +11.484882, -88.654472, +20.061529 
1488855141.069373, 1488855141.069373, -1.104736, +0.023560, -0.124878, +11.484882, -88.654472, +20.061529 
1488855141.073195, 1488855141.073195, -1.104736, +0.023560, -0.124878, +15.391132, -74.707939, +18.444098 
1488855141.076970, 1488855141.076970, -1.028198, +0.089966, -0.343506, +15.391132, -74.707939, +18.444098 
1488855141.080720, 1488855141.080720, -1.028198, +0.089966, -0.343506, +15.391132, -74.707939, +18.444098 
1488855141.084649, 1488855141.084649, -1.028198, +0.089966, -0.343506, +18.320820, -55.558159, +18.795050 
1488855141.088590, 1488855141.088590, -1.028198, +0.089966, -0.343506, +18.320820, -55.558159, +18.795050 
1488855141.092530, 1488855141.092530, -1.028198, +0.089966, -0.343506, +18.320820, -55.558159, +16.490973 
1488855141.096522, 1488855141.096522, -1.229858, +0.226807, -0.286377, +12.659809, -46.753838, +16.490973 
1488855141.100567, 1488855141.100567, -1.229858, +0.226807, -0.286377, +12.659809, -46.753838, +16.490973 
1488855141.104449, 1488855141.104449, -1.229858, +0.226807, -0.286377, +0.559589, -44.068291, +8.098639 
1488855141.108194, 1488855141.108194, -1.229858, +0.226807, -0.286377, +0.559589, -44.068291, +8.098639 
1488855141.111940, 1488855141.111940, -1.229858, +0.226807, -0.286377, +0.559589, -44.068291, +8.098639 
1488855141.115698, 1488855141.115698, -1.073608, +0.196655, -0.197632, -10.121563, -40.039970, +3.353155 
1488855141.119443, 1488855141.119443, -1.083008, +0.196655, -0.197632, -10.121563, -40.039970, +3.353155 
1488855141.123260, 1488855141.123260, -1.083008, +0.196655, -0.197632, -10.121563, -40.039970, +3.353155 
1488855141.127196, 1488855141.127196, -1.083008, +0.196655, -0.197632, -6.367901, -36.118462, +2.391851 
1488855141.131133, 1488855141.131133, -1.083008, +0.196655, -0.197632, -6.367901, -36.118462, +2.391851 
1488855141.135087, 1488855141.135087, -1.083008, +0.165405, -0.346313, -6.367901, -36.118462, +2.391851 
1488855141.139023, 1488855141.139023, -1.002075, +0.164917, -0.346313, +5.884907, -30.838919, +2.391851 
1488855141.143511, 1488855141.143511, -1.002075, +0.164917, -0.346313, +5.884907, -30.838919, +2.391851 
1488855141.147459, 1488855141.147459, -1.002075, +0.164917, -0.346313, +5.884907, -26.932669, +5.031622 
1488855141.151394, 1488855141.151394, -1.002075, +0.164917, -0.346313, +9.791157, -28.626394, +5.031622 
1488855141.155234, 1488855141.155234, -1.002075, +0.111572, -0.428101, +9.791157, -28.626394, +5.031622 
1488855141.158972, 1488855141.158972, -1.002686, +0.111572, -0.428101, +16.352436, -26.566458, +10.234869 
1488855141.162721, 1488855141.162721, -1.002686, +0.111572, -0.428101, +16.352436, -26.566458, +10.234869 
1488855141.166703, 1488855141.166703, -1.002686, +0.111572, -0.428101, +16.352436, -26.566458, +10.234869 
1488855141.170650, 1488855141.170650, -1.002686, +0.111572, -0.428101, +21.860859, -24.781179, +9.365118 
1488855141.174530, 1488855141.174530, -1.002686, +0.111572, -0.329834, +21.860859, -24.781179, +9.365118 
1488855141.178276, 1488855141.178276, -1.061035, +0.304810, -0.329834, +21.860859, -24.781179, +9.365118 
1488855141.182026, 1488855141.182026, -1.061035, +0.304810, -0.329834, +17.252705, -26.642752, +8.556402 
1488855141.185799, 1488855141.185799, -1.061035, +0.304810, -0.329834, +17.252705, -26.642752, +8.556402 
1488855141.189544, 1488855141.189544, -1.061035, +0.304810, -0.329834, +17.252705, -26.642752, +8.556402 
1488855141.193410, 1488855141.193410, -1.061035, +0.304810, -0.329834, +9.608051, -29.663992, +4.329718 
1488855141.197152, 1488855141.197152, -1.047607, +0.355347, -0.337769, +9.608051, -29.663992, +4.329718 
1488855141.200901, 1488855141.200901, -1.047607, +0.355347, -0.337769, +9.608051, -29.663992, +4.329718 
1488855141.204822, 1488855141.204822, -1.047607, +0.355347, -0.337769, -2.415874, -30.350637, +1.720465 
1488855141.208739, 1488855141.208739, -1.047607, +0.355347, -0.337769, -2.415874, -30.350637, +1.720465 
1488855141.212651, 1488855141.212651, -1.047607, +0.355347, -0.337769, -2.415874, -34.256889, +0.621832 
1488855141.216578, 1488855141.216578, -1.097900, +0.131592, -0.380981, -16.942242, -33.158257, +0.621832 
1488855141.220495, 1488855141.220495, -1.097900, +0.131592, -0.380981, -16.942242, -33.158257, +0.621832 
1488855141.224477, 1488855141.224477, -1.097900, +0.131592, -0.380981, -29.240826, -36.423637, -0.843012 
1488855141.228393, 1488855141.228393, -1.097900, +0.131592, -0.380981, -29.240826, -36.423637, -0.843012 
1488855141.232317, 1488855141.232317, -1.097900, +0.131592, -0.380981, -29.240826, -36.423637, -0.843012 
1488855141.236280, 1488855141.236280, -1.153076, +0.103271, -0.393433, -31.895855, -40.360405, +2.010382 
1488855141.240202, 1488855141.240202, -1.153076, +0.103271, -0.393433, -31.895855, -40.360405, +2.010382 
1488855141.244136, 1488855141.244136, -1.153076, +0.103271, -0.393433, -31.895855, -40.360405, +2.010382 
1488855141.248160, 1488855141.248160, -1.153076, +0.103271, -0.393433, -29.454449, -42.801811, +5.504644 
1488855141.252084, 1488855141.252084, -1.153076, +0.103271, -0.393433, -29.454449, -42.801811, +5.504644 
1488855141.256047, 1488855141.256047, -1.085571, +0.099365, -0.398926, -29.454449, -42.801811, +11.730230 
1488855141.260209, 1488855141.260209, -1.085571, +0.099365, -0.398926, -25.304058, -47.440483, +11.730230 
1488855141.264260, 1488855141.264260, -1.085571, +0.099365, -0.398926, -25.304058, -47.440483, +11.730230 
1488855141.268212, 1488855141.268212, -1.085571, +0.099365, -0.398926, -18.681744, -51.102592, +18.398321 
1488855141.272156, 1488855141.272156, -1.085571, +0.099365, -0.398926, -18.681744, -51.102592, +18.398321 
1488855141.276116, 1488855141.276116, -1.047485, +0.223755, -0.335449, -18.681744, -51.102592, +18.398321 
1488855141.280066, 1488855141.280066, -1.047485, +0.223755, -0.335449, -15.355328, -52.369072, +22.777594 
1488855141.284016, 1488855141.284016, -1.047485, +0.223755, -0.335449, -15.355328, -52.369072, +22.777594 
1488855141.287962, 1488855141.287962, -1.047485, +0.223755, -0.335449, -15.355328, -52.369072, +22.777594 
1488855141.291911, 1488855141.291911, -1.047485, +0.223755, -0.335449, -16.621807, -53.666069, +24.242437 
1488855141.295766, 1488855141.295766, -1.139526, +0.362793, -0.150024, -16.621807, -53.666069, +24.242437 
1488855141.299514, 1488855141.299514, -1.139526, +0.362793, -0.150024, -16.621807, -53.666069, +20.336187 
1488855141.303306, 1488855141.303306, -1.139526, +0.362793, -0.150024, -21.611431, -54.261162, +22.411383 
1488855141.307055, 1488855141.307055, -1.139526, +0.362793, -0.150024, -21.611431, -54.261162, +22.411383 
1488855141.310804, 1488855141.310804, -1.139526, +0.362793, -0.150024, -21.611431, -54.261162, +19.115484 
1488855141.314729, 1488855141.314729, -1.156372, +0.288696, -0.162964, -29.195049, -55.588676, +19.115484 
1488855141.318477, 1488855141.318477, -1.156372, +0.288696, -0.162964, -29.195049, -55.588676, +19.115484 
1488855141.322226, 1488855141.322226, -1.156372, +0.288696, -0.162964, -35.283306, -57.145073, +16.857183 
1488855141.326235, 1488855141.326235, -1.156372, +0.288696, -0.162964, -35.283306, -57.145073, +16.857183 
1488855141.330174, 1488855141.330174, -1.156372, +0.288696, -0.162964, -35.283306, -57.145073, +16.857183 
1488855141.334131, 1488855141.334131, -1.220215, +0.209961, -0.153931, -36.595562, -59.327080, +15.728033 
1488855141.338076, 1488855141.338076, -1.220215, +0.209961, -0.153931, -36.595562, -59.327080, +15.728033 
1488855141.342022, 1488855141.342022, -1.220215, +0.209961, -0.153931, -36.595562, -59.327080, +15.728033 
1488855141.345834, 1488855141.345834, -1.220215, +0.209961, -0.153931, -33.833721, -63.034966, +17.940557 
1488855141.349577, 1488855141.349577, -1.220215, +0.209961, -0.153931, -33.833721, -63.034966, +17.940557 
1488855141.353353, 1488855141.353353, -1.220215, +0.084961, -0.246216, -33.833721, -63.034966, +17.940557 
1488855141.357297, 1488855141.357297, -1.287964, +0.075928, -0.246216, -27.043560, -68.131401, +20.626104 
1488855141.361245, 1488855141.361245, -1.287964, +0.075928, -0.246216, -27.043560, -68.131401, +20.626104 
1488855141.365200, 1488855141.365200, -1.287964, +0.075928, -0.246216, -27.043560, -75.943901, +24.379766 
1488855141.369145, 1488855141.369145, -1.287964, +0.075928, -0.246216, -19.627789, -73.609306, +24.379766 
1488855141.373104, 1488855141.373104, -1.287964, +0.075928, -0.292603, -19.627789, -73.609306, +24.379766 
1488855141.377057, 1488855141.377057, -1.382202, +0.182983, -0.292603, -13.921001, -80.185844, +28.926886 
1488855141.381203, 1488855141.381203, -1.382202, +0.182983, -0.292603, -13.921001, -80.185844, +28.926886 
1488855141.385387, 1488855141.385387, -1.382202, +0.182983, -0.292603, -13.921001, -80.185844, +28.926886 
1488855141.389331, 1488855141.389331, -1.382202, +0.182983, -0.292603, -14.470318, -87.662651, +32.100716 
1488855141.393277, 1488855141.393277, -1.382202, +0.270264, -0.300659, -14.470318, -87.662651, +32.100716 
1488855141.397028, 1488855141.397028, -1.564941, +0.270264, -0.300659, -14.470318, -87.662651, +32.100716 
1488855141.400880, 1488855141.400880, -1.564941, +0.270264, -0.300659, -14.760235, -95.429375, +37.532845 
1488855141.404729, 1488855141.404729, -1.564941, +0.270264, -0.300659, -14.760235, -95.429375, +37.532845 
1488855141.408671, 1488855141.408671, -1.564941, +0.270264, -0.300659, -14.760235, -103.241875, +41.042366 
1488855141.412622, 1488855141.412622, -1.564941, +0.270264, -0.309692, -20.238140, -103.394463, +41.042366 
1488855141.416409, 1488855141.416409, -1.674561, +0.160400, -0.309692, -20.238140, -103.394463, +41.042366 
1488855141.420161, 1488855141.420161, -1.674561, +0.160400, -0.309692, -28.050640, -112.763359, +44.521370 
1488855141.424035, 1488855141.424035, -1.674561, +0.160400, -0.309692, -28.050640, -112.763359, +44.521370 
1488855141.427790, 1488855141.427790, -1.674561, +0.160400, -0.309692, -28.050640, -112.763359, +44.521370 
1488855141.431534, 1488855141.431534, -1.674561, +0.160400, -0.309692, -35.176495, -122.559502, +47.130623 
1488855141.435394, 1488855141.435394, -1.698120, -0.056519, -0.335327, -35.176495, -122.559502, +47.130623 
1488855141.439141, 1488855141.439141, -1.698120, -0.056519, -0.335327, -35.176495, -122.559502, +47.130623 
1488855141.442897, 1488855141.442897, -1.698120, -0.056519, -0.335327, -37.526348, -131.531662, +50.060310 
1488855141.446678, 1488855141.446678, -1.698120, -0.056519, -0.335327, -37.526348, -131.531662, +50.060310 
1488855141.450433, 1488855141.450433, -1.698120, -0.056519, -0.335327, -37.526348, -131.531662, +50.060310 
1488855141.454288, 1488855141.454288, -1.808594, +0.065186, -0.315918, -39.616802, -141.556686, +56.072273 
1488855141.458234, 1488855141.458234, -1.808594, +0.065186, -0.315918, -39.616802, -141.556686, +56.072273 
1488855141.462181, 1488855141.462181, -1.808594, +0.065186, -0.315918, -39.616802, -141.556686, +56.072273 
1488855141.466140, 1488855141.466140, -1.808594, +0.065186, -0.315918, -48.604229, -149.353928, +59.627571 
1488855141.470085, 1488855141.470085, -1.808594, +0.065186, -0.315918, -48.604229, -149.353928, +59.627571 
1488855141.474024, 1488855141.474024, -1.790039, +0.033203, -0.689087, -48.604229, -153.260178, +58.010139 
1488855141.477776, 1488855141.477776, -1.790039, +0.033203, -0.689087, -62.154034, -153.016037, +58.010139 
1488855141.481531, 1488855141.481531, -1.790039, +0.033203, -0.689087, -62.154034, -153.016037, +58.010139 
1488855141.485440, 1488855141.485440, -1.790039, +0.033203, -0.689087, -73.918564, -160.813278, +59.658089 
1488855141.489193, 1488855141.489193, -1.790039, +0.033203, -0.689087, -73.918564, -160.813278, +59.658089 
1488855141.492946, 1488855141.492946, -2.237915, +0.238403, -1.076416, -73.918564, -160.813278, +59.658089 
1488855141.496756, 1488855141.496756, -2.237915, +0.238403, -1.076416, -89.741928, -167.984909, +61.489143 
1488855141.500716, 1488855141.500716, -2.237915, +0.238403, -1.076416, -89.741928, -167.984909, +61.489143 
1488855141.504748, 1488855141.504748, -2.237915, +0.238403, -1.076416, -89.741928, -167.984909, +61.489143 
1488855141.508673, 1488855141.508673, -2.237915, +0.238403, -1.076416, -121.266586, -170.350021, +56.545296 
1488855141.512599, 1488855141.512599, -1.925415, +0.000977, -1.598755, -121.266586, -170.350021, +56.545296 
1488855141.516537, 1488855141.516537, -1.931519, +0.000977, -1.598755, -121.266586, -170.350021, +56.545296 
1488855141.520462, 1488855141.520462, -1.931519, +0.000977, -1.598755, -148.747665, -167.130417, +51.708260 
1488855141.524379, 1488855141.524379, -1.931519, +0.000977, -1.598755, -148.747665, -167.130417, +51.708260 
1488855141.528268, 1488855141.528268, -1.931519, +0.000977, -1.598755, -148.747665, -167.130417, +48.229256 
1488855141.532165, 1488855141.532165, -1.931519, -0.376099, -1.289673, -154.072983, -163.681931, +48.229256 
1488855141.535999, 1488855141.535999, -1.956421, -0.376099, -1.289673, -154.072983, -163.681931, +48.229256 
1488855141.539751, 1488855141.539751, -1.956421, -0.376099, -1.289673, -161.885483, -163.330978, +35.442390 
1488855141.543506, 1488855141.543506, -1.956421, -0.376099, -1.289673, -161.504013, -163.330978, +35.442390 
1488855141.547360, 1488855141.547360, -1.956421, -0.376099, -1.289673, -161.504013, -163.330978, +35.442390 
1488855141.551112, 1488855141.551112, -1.956421, -0.376099, -1.289673, -169.957382, -176.453537, +34.923592 
1488855141.554999, 1488855141.554999, -2.317017, -0.005859, -0.509521, -169.957382, -176.453537, +34.923592 
1488855141.558751, 1488855141.558751, -2.317017, -0.005859, -0.509521, -169.957382, -176.453537, +34.923592 
1488855141.562501, 1488855141.562501, -2.317017, -0.005859, -0.509521, -165.425522, -176.545090, +44.643440 
1488855141.566509, 1488855141.566509, -2.317017, -0.005859, -0.509521, -165.425522, -176.545090, +44.643440 
1488855141.570456, 1488855141.570456, -2.317017, -0.005859, -0.509521, -165.425522, -176.545090, +44.643440 
1488855141.574415, 1488855141.574415, -1.993164, +0.574463, -0.400513, -154.332382, -165.757126, +52.516975 
1488855141.578358, 1488855141.578358, -1.993164, +0.574463, -0.400513, -154.332382, -165.757126, +52.516975 
1488855141.582299, 1488855141.582299, -1.993164, +0.574463, -0.400513, -154.332382, -165.757126, +52.516975 
1488855141.586292, 1488855141.586292, -1.993164, +0.574463, -0.400513, -133.153183, -151.551193, +52.623787 
1488855141.590229, 1488855141.590229, -1.993164, +0.574463, -0.400513, -133.153183, -151.551193, +52.623787 
1488855141.594137, 1488855141.594137, -1.602783, +0.654419, -0.234375, -51.121929, -138.916916, +51.052132 
1488855141.597886, 1488855141.597886, -1.602783, +0.654419, -0.234375, -50.847271, -138.916916, +51.052132 
1488855141.601640, 1488855141.601640, -1.602783, +0.654419, -0.234375, -50.847271, -138.916916, +51.052132 
1488855141.605552, 1488855141.605552, -1.602783, +0.654419, -0.234375, +20.319721, -123.307182, +47.634163 
1488855141.609504, 1488855141.609504, -1.602783, +0.654419, -0.234375, +20.319721, -123.307182, +47.634163 
1488855141.613484, 1488855141.613484, -1.105469, +0.824341, +1.035889, +20.319721, -123.307182, +47.634163 
1488855141.617429, 1488855141.617429, -1.105469, +0.824341, +1.035889, +11.240742, -118.149712, +34.893074 
1488855141.621536, 1488855141.621536, -1.105469, +0.824341, +1.035889, +11.240742, -118.149712, +34.893074 
1488855141.625886, 1488855141.625886, -1.105469, +0.824341, +1.035889, +11.240742, -118.149712, +30.986822 
1488855141.629838, 1488855141.629838, -1.105469, +0.824341, +1.035889, +18.625996, -130.387253, +32.772102 
1488855141.634416, 1488855141.634416, -0.549072, +0.257324, +0.800049, +18.625996, -130.387253, +32.772102 
1488855141.638161, 1488855141.638161, -0.549072, +0.257324, +0.800049, +47.739765, -102.799370, +15.361822 
1488855141.641905, 1488855141.641905, -0.549072, +0.257324, +0.800049, +47.739765, -102.799370, +15.361822 
1488855141.645781, 1488855141.645781, -0.549072, +0.257324, +0.800049, +47.739765, -102.799370, +15.361822 
1488855141.649527, 1488855141.649527, -0.549072, +0.257324, +0.800049, +57.429096, -70.176079, -7.068598 
1488855141.653325, 1488855141.653325, -0.161255, +0.178223, +0.470093, +57.429096, -70.176079, -7.068598 
1488855141.657069, 1488855141.657069, -0.161255, +0.178223, +0.470093, +57.429096, -70.176079, -7.068598 
1488855141.660814, 1488855141.660814, -0.161255, +0.178223, +0.470093, +69.636124, -52.094414, -18.405878 
1488855141.664606, 1488855141.664606, -0.161255, +0.178223, +0.470093, +69.636124, -52.094414, -18.405878 
1488855141.668373, 1488855141.668373, -0.161255, +0.178223, +0.470093, +69.636124, -52.094414, -18.405878 
1488855141.672112, 1488855141.672112, +0.075073, +0.110840, +0.184937, +94.584244, -30.976248, -25.165522 
1488855141.675864, 1488855141.675864, +0.075073, +0.110840, +0.184937, +94.584244, -30.976248, -25.165522 
1488855141.679609, 1488855141.679609, +0.075073, +0.110840, +0.184937, +94.584244, -30.976248, -25.165522 
1488855141.683420, 1488855141.683420, +0.075073, +0.110840, +0.184937, +107.416885, +2.165842, -32.184563 
1488855141.687188, 1488855141.687188, +0.075073, +0.110840, +0.184937, +107.416885, +2.165842, -32.184563 
1488855141.691042, 1488855141.691042, +0.075073, +0.213013, -0.261353, +107.416885, +2.165842, -32.184563 
1488855141.694941, 1488855141.694941, +0.218506, +0.213013, -0.261353, +102.518814, +40.206001, -36.167107 
1488855141.698692, 1488855141.698692, +0.218506, +0.213013, -0.261353, +102.518814, +40.206001, -36.167107 
1488855141.702448, 1488855141.702448, +0.218506, +0.213013, -0.261353, +102.518814, +40.206001, -41.675529 
1488855141.706389, 1488855141.706389, +0.218506, +0.213013, -0.261353, +92.737930, +73.927925, -41.675529 
1488855141.710335, 1488855141.710335, +0.218506, +0.213013, -0.161987, +92.737930, +73.927925, -41.675529 
1488855141.714292, 1488855141.714292, +0.098999, +0.202759, -0.161987, +78.593033, +94.878242, -51.609001 
1488855141.718237, 1488855141.718237, +0.098999, +0.202759, -0.161987, +78.593033, +94.878242, -51.609001 
1488855141.722189, 1488855141.722189, +0.098999, +0.202759, -0.161987, +78.593033, +94.878242, -51.609001 
1488855141.725988, 1488855141.725988, +0.098999, +0.202759, -0.161987, +59.183857, +105.589912, -62.763176 
1488855141.729742, 1488855141.729742, +0.098999, +0.202759, -0.161987, +59.183857, +105.589912, -62.763176 
1488855141.733533, 1488855141.733533, +0.103027, +0.155884, +0.041138, +59.183857, +105.589912, -62.763176 
1488855141.737484, 1488855141.737484, +0.103027, +0.155884, +0.041138, +45.099995, +116.072701, -73.856316 
1488855141.741432, 1488855141.741432, +0.103027, +0.155884, +0.041138, +45.099995, +116.072701, -73.856316 
1488855141.745282, 1488855141.745282, +0.103027, +0.155884, +0.041138, +45.099995, +116.072701, -73.856316 
1488855141.749095, 1488855141.749095, +0.103027, +0.155884, +0.041138, +41.178486, +131.087357, -84.552727 
1488855141.753408, 1488855141.753408, +0.156006, +0.120972, +0.008789, +41.178486, +131.087357, -84.552727 
1488855141.757357, 1488855141.757357, +0.156006, +0.120972, +0.008789, +45.084736, +148.985916, -93.585930 
1488855141.761301, 1488855141.761301, +0.156006, +0.120972, +0.008789, +43.558857, +148.985916, -93.585930 
1488855141.765294, 1488855141.765294, +0.156006, +0.120972, +0.008789, +43.558857, +148.985916, -93.585930 
1488855141.769249, 1488855141.769249, +0.156006, +0.120972, +0.008789, +46.259663, +167.067581, -101.200066 
1488855141.773246, 1488855141.773246, +0.123169, +0.083374, -0.127441, +46.259663, +167.067581, -101.200066 
1488855141.777196, 1488855141.777196, +0.123169, +0.083374, -0.127441, +46.259663, +167.067581, -101.200066 
1488855141.781143, 1488855141.781143, +0.123169, +0.083374, -0.127441, +47.526142, +183.821732, -107.578239 
1488855141.785001, 1488855141.785001, +0.123169, +0.083374, -0.127441, +47.526142, +183.821732, -107.578239 
1488855141.788745, 1488855141.788745, +0.123169, +0.083374, -0.127441, +47.526142, +183.821732, -107.578239 
1488855141.792499, 1488855141.792499, -0.055420, +0.013306, -0.190552, +47.663471, +198.515945, -114.658318 
1488855141.796260, 1488855141.796260, -0.055420, +0.013306, -0.190552, +47.663471, +198.515945, -114.658318 
1488855141.800006, 1488855141.800006, -0.055420, +0.013306, -0.190552, +47.663471, +198.515945, -114.658318 
1488855141.803870, 1488855141.803870, -0.055420, +0.013306, -0.190552, +46.671650, +209.456497, -121.387444 
1488855141.807617, 1488855141.807617, -0.055420, +0.013306, -0.190552, +46.671650, +209.456497, -121.387444 
1488855141.811377, 1488855141.811377, -0.208984, -0.028198, -0.186157, +46.671650, +217.268997, -126.026115 
1488855141.815395, 1488855141.815395, -0.208984, -0.028198, -0.186157, +46.702168, +219.069534, -126.026115 
1488855141.819347, 1488855141.819347, -0.208984, -0.028198, -0.186157, +46.702168, +219.069534, -126.026115 
1488855141.823303, 1488855141.823303, -0.208984, -0.028198, -0.186157, +47.571918, +227.675491, -128.452271 
1488855141.827256, 1488855141.827256, -0.208984, -0.028198, -0.186157, +47.571918, +227.675491, -128.452271 
1488855141.831211, 1488855141.831211, -0.345337, -0.026245, -0.093384, +47.571918, +227.675491, -128.452271 
1488855141.835067, 1488855141.835067, -0.345337, -0.026245, -0.093384, +49.998066, +234.297806, -129.215210 
1488855141.838933, 1488855141.838933, -0.345337, -0.026245, -0.093384, +49.998066, +234.297806, -129.215210 
1488855141.842845, 1488855141.842845, -0.345337, -0.026245, -0.093384, +49.998066, +234.297806, -129.215210 
1488855141.846815, 1488855141.846815, -0.345337, -0.026245, -0.093384, +55.750629, +239.134842, -129.184692 
1488855141.851106, 1488855141.851106, -0.418335, +0.008057, +0.017700, +55.750629, +239.134842, -129.184692 
1488855141.854982, 1488855141.854982, -0.418335, +0.008057, +0.017700, +55.750629, +239.134842, -129.062622 
1488855141.858733, 1488855141.858733, -0.418335, +0.008057, +0.017700, +64.646500, +242.293411, -129.062622 
1488855141.862475, 1488855141.862475, -0.418335, +0.008057, +0.017700, +64.646500, +242.293411, -129.062622 
1488855141.866234, 1488855141.866234, -0.418335, +0.008057, +0.017700, +76.365250, +247.466141, -128.040283 
1488855141.869977, 1488855141.869977, -0.480957, +0.057983, +0.068359, +73.954361, +247.466141, -128.040283 
1488855141.873732, 1488855141.873732, -0.480957, +0.057983, +0.068359, +73.954361, +247.466141, -128.040283 
1488855141.877474, 1488855141.877474, -0.480957, +0.057983, +0.068359, +76.945084, +254.286819, -128.406494 
1488855141.881222, 1488855141.881222, -0.480957, +0.057983, +0.068359, +76.945084, +254.286819, -128.406494 
1488855141.885030, 1488855141.885030, -0.480957, +0.057983, +0.068359, +76.945084, +254.286819, -128.406494 
1488855141.888775, 1488855141.888775, -0.480957, +0.057983, +0.037231, +76.838272, +261.000671, -128.986328 
1488855141.892605, 1488855141.892605, -0.615967, +0.217651, +0.037231, +76.838272, +261.000671, -128.986328 
1488855141.896478, 1488855141.896478, -0.615967, +0.217651, +0.037231, +76.838272, +261.000671, -128.986328 
1488855141.900221, 1488855141.900221, -0.615967, +0.217651, +0.037231, +74.610489, +269.789734, -131.229370 
1488855141.904146, 1488855141.904146, -0.615967, +0.217651, +0.037231, +74.610489, +269.789734, -131.229370 
1488855141.907895, 1488855141.907895, -0.615967, +0.217651, +0.037231, +74.610489, +269.789734, -131.229370 
1488855141.911643, 1488855141.911643, -0.881592, +0.309204, -0.111816, +69.041031, +280.089417, -134.464233 
1488855141.915408, 1488855141.915408, -0.881592, +0.309204, -0.111816, +69.041031, +280.089417, -134.464233 
1488855141.919149, 1488855141.919149, -0.881592, +0.309204, -0.111816, +69.041031, +280.089417, -134.464233 
1488855141.922893, 1488855141.922893, -0.881592, +0.309204, -0.111816, +62.876484, +289.183655, -137.760132 
1488855141.926834, 1488855141.926834, -0.881592, +0.309204, -0.111816, +62.876484, +289.183655, -137.760132 
1488855141.930777, 1488855141.930777, -1.380371, +0.315063, -0.158936, +62.876484, +289.183655, -137.760132 
1488855141.934656, 1488855141.934656, -1.380371, +0.315063, -0.158936, +58.863422, +293.044128, -138.111084 
1488855141.938395, 1488855141.938395, -1.380371, +0.315063, -0.158936, +58.863422, +293.044128, -138.111084 
1488855141.942141, 1488855141.942141, -1.380371, +0.315063, -0.158936, +58.863422, +293.044128, -136.936157 
1488855141.946153, 1488855141.946153, -1.380371, +0.315063, -0.158936, +56.483051, +292.006531, -136.936157 
1488855141.950096, 1488855141.950096, -1.979248, +0.288330, +0.050293, +56.483051, +292.006531, -136.936157 
1488855141.954092, 1488855141.954092, -1.979248, +0.288330, +0.050293, +58.161518, +289.961853, -134.586304 
1488855141.958033, 1488855141.958033, -1.979248, +0.288330, +0.050293, +58.161518, +289.961853, -134.586304 
1488855141.962096, 1488855141.962096, -1.979248, +0.288330, +0.050293, +58.161518, +289.961853, -134.586304 
1488855141.966587, 1488855141.966587, -1.979248, +0.288330, +0.050293, +67.286270, +284.758606, -133.121460 
1488855141.970330, 1488855141.970330, -2.583740, +0.548584, +0.360107, +67.286270, +284.758606, -133.121460 
1488855141.974176, 1488855141.974176, -2.583740, +0.548584, +0.360107, +67.286270, +284.758606, -133.121460 
1488855141.977917, 1488855141.977917, -2.583740, +0.548584, +0.360107, +77.433365, +272.673645, -134.632080 
1488855141.981657, 1488855141.981657, -2.583740, +0.548584, +0.360107, +77.433365, +272.673645, -134.632080 
1488855141.985526, 1488855141.985526, -2.583740, +0.548584, +0.360107, +77.433365, +272.673645, -134.372681 
1488855141.989271, 1488855141.989271, -2.846436, +0.676758, +0.521973, +89.426773, +253.706985, -134.372681 
1488855141.993023, 1488855141.993023, -2.846436, +0.676758, +0.521973, +89.426773, +253.706985, -134.372681 
1488855141.996761, 1488855141.996761, -2.846436, +0.676758, +0.521973, +89.426773, +228.392654, -131.107300 
1488855142.000498, 1488855142.000498, -2.846436, +0.676758, +0.521973, +100.519913, +228.392654, -131.107300 
1488855142.004298, 1488855142.004298, -2.846436, +0.676758, +0.521973, +100.519913, +228.392654, -131.107300 
1488855142.008043, 1488855142.008043, -2.846436, +0.676758, +0.562134, +103.235977, +199.111038, -120.731316 
1488855142.011771, 1488855142.011771, -2.783691, +0.605713, +0.562134, +103.235977, +199.111038, -120.731316 
1488855142.015689, 1488855142.015689, -2.783691, +0.605713, +0.562134, +103.235977, +199.111038, -120.731316 
1488855142.019427, 1488855142.019427, -2.783691, +0.605713, +0.562134, +108.027237, +169.539505, -94.455681 
1488855142.023330, 1488855142.023330, -2.783691, +0.605713, +0.562134, +108.027237, +169.539505, -94.455681 
1488855142.027078, 1488855142.027078, -2.783691, +0.605713, +0.562134, +108.027237, +169.539505, -94.455681 
1488855142.030814, 1488855142.030814, -2.555786, +1.425171, +0.756592, +113.734024, +135.024124, -51.471672 
1488855142.034624, 1488855142.034624, -2.555786, +1.425171, +0.756592, +113.734024, +135.024124, -51.471672 
1488855142.038367, 1488855142.038367, -2.555786, +1.425171, +0.756592, +113.734024, +135.024124, -51.471672 
1488855142.042107, 1488855142.042107, -2.555786, +1.425171, +0.756592, +113.825577, +87.386177, -8.441889 
1488855142.046008, 1488855142.046008, -2.555786, +1.425171, +0.756592, +113.825577, +87.386177, -8.441889 
1488855142.049970, 1488855142.049970, -2.576660, +1.950439, +1.574951, +113.825577, +87.386177, -8.441889 
1488855142.053835, 1488855142.053835, -2.576660, +1.950439, +1.574951, +78.943985, +19.270945, +22.472418 
1488855142.057721, 1488855142.057721, -2.576660, +1.950439, +1.574951, +78.943985, +19.270945, +22.472418 
1488855142.061967, 1488855142.061967, -2.576660, +1.950439, +1.574951, +78.943985, -47.135307, +36.571541 
1488855142.065787, 1488855142.065787, -2.576660, +1.950439, +1.574951, +3.748676, -49.469902, +36.571541 
1488855142.069530, 1488855142.069530, -0.899170, -1.304077, -2.178589, +3.748676, -49.469902, +36.571541 
1488855142.073326, 1488855142.073326, -0.899170, -1.304077, -2.178589, +0.849506, -45.014336, +17.803228 
1488855142.077073, 1488855142.077073, -0.899170, -1.304077, -2.178589, +0.849506, -45.014336, +17.803228 
1488855142.080813, 1488855142.080813, -0.899170, -1.304077, -2.178589, +0.849506, -45.014336, +17.803228 
1488855142.084620, 1488855142.084620, -0.899170, -1.304077, -2.178589, +5.091450, +39.580391, -24.585688 
1488855142.088368, 1488855142.088368, -2.515503, -0.549316, -1.301270, +5.091450, +39.580391, -24.585688 
1488855142.092109, 1488855142.092109, -2.515503, -0.549316, -1.301270, +5.091450, +39.580391, -24.585688 
1488855142.095855, 1488855142.095855, -2.515503, -0.549316, -1.301270, -20.009258, -14.481497, +18.627203 
1488855142.099596, 1488855142.099596, -2.515503, -0.549316, -1.301270, -20.009258, -14.481497, +18.627203 
1488855142.103426, 1488855142.103426, -2.515503, -0.549316, -1.301270, -20.009258, -14.481497, +18.627203 
1488855142.107185, 1488855142.107185, -2.515503, -0.549316, +0.069824, -49.168804, -173.996872, +43.651619 
1488855142.110934, 1488855142.110934, -1.868774, +0.874634, +0.069824, -49.168804, -173.996872, +43.651619 
1488855142.114878, 1488855142.114878, -1.868774, +0.874634, +0.069824, -49.168804, -173.996872, +43.651619 
1488855142.118629, 1488855142.118629, -1.868774, +0.874634, +0.069824, -75.780136, -192.383713, +38.265266 
1488855142.122467, 1488855142.122467, -1.868774, +0.874634, +0.069824, -75.780136, -192.383713, +38.265266 
1488855142.126380, 1488855142.126380, -1.868774, +0.874634, +0.069824, -75.780136, -192.383713, +38.265266 
1488855142.130418, 1488855142.130418, -1.659180, +0.871460, -0.383545, -115.788681, -119.156792, +50.853767 
1488855142.134352, 1488855142.134352, -1.659180, +0.871460, -0.383545, -115.788681, -119.156792, +50.853767 
1488855142.138271, 1488855142.138271, -1.659180, +0.871460, -0.383545, -115.788681, -114.823296, +100.643196 
1488855142.142194, 1488855142.142194, -1.659180, +0.871460, -0.383545, -131.001694, -114.823296, +100.643196 
1488855142.146126, 1488855142.146126, -1.659180, +0.871460, -0.383545, -131.001694, -114.823296, +100.643196 
1488855142.150052, 1488855142.150052, -1.598877, -0.219360, -0.208984, -67.021591, -132.477707, +108.333626 
1488855142.154107, 1488855142.154107, -1.598877, -0.219360, -0.208984, -67.021591, -132.477707, +108.333626 
1488855142.157861, 1488855142.157861, -1.598877, -0.219360, -0.208984, -67.021591, -132.477707, +108.333626 
1488855142.161608, 1488855142.161608, -1.598877, -0.219360, -0.208984, -29.561260, -106.675102, +63.579597 
1488855142.165539, 1488855142.165539, -1.598877, -0.219360, -0.208984, -29.561260, -106.675102, +63.579597 
1488855142.169896, 1488855142.169896, -1.136597, -0.115845, +0.160034, -29.561260, -106.675102, +63.579597 
1488855142.173709, 1488855142.173709, -1.136597, -0.115845, +0.160034, -1.652935, -103.806450, +56.835213 
1488855142.177456, 1488855142.177456, -1.136597, -0.115845, +0.160034, -1.652935, -103.806450, +56.835213 
1488855142.181191, 1488855142.181191, -1.136597, -0.115845, +0.160034, -1.652935, -103.806450, +68.553963 
1488855142.184987, 1488855142.184987, -1.136597, -0.115845, +0.160034, +50.623676, -120.636894, +69.393196 
1488855142.188728, 1488855142.188728, -1.087769, +0.422607, -0.394775, +50.623676, -120.636894, +69.393196 
1488855142.192472, 1488855142.192472, -1.087769, +0.422607, -0.394775, +50.623676, -120.636894, +62.526741 
1488855142.196217, 1488855142.196217, -1.087769, +0.422607, -0.394775, +77.631729, -119.965508, +62.526741 
1488855142.199967, 1488855142.199967, -1.087769, +0.422607, -0.394775, +77.631729, -119.965508, +62.526741 
1488855142.203713, 1488855142.203713, -1.087769, +0.422607, -0.394775, +50.287983, -106.034233, +48.595467 
1488855142.207451, 1488855142.207451, -0.952515, +0.455200, -0.240967, +50.715229, -106.034233, +48.595467 
1488855142.211198, 1488855142.211198, -0.952515, +0.455200, -0.240967, +50.715229, -106.034233, +48.595467 
1488855142.215126, 1488855142.215126, -0.952515, +0.455200, -0.240967, +11.774799, -101.960136, +40.950813 
1488855142.218873, 1488855142.218873, -0.952515, +0.455200, -0.240967, +11.774799, -101.960136, +40.950813 
1488855142.222627, 1488855142.222627, -0.952515, +0.455200, -0.240967, +11.774799, -101.960136, +40.950813 
1488855142.226493, 1488855142.226493, -0.952515, +0.080200, -0.168579, +11.347553, -96.146538, +33.962288 
1488855142.230234, 1488855142.230234, -0.932861, +0.068726, -0.168579, +11.347553, -96.146538, +33.962288 
1488855142.234050, 1488855142.234050, -0.932861, +0.068726, -0.168579, +11.347553, -96.146538, +33.962288 
1488855142.237793, 1488855142.237793, -0.932861, +0.068726, -0.168579, +22.349140, -79.194023, +31.703985 
1488855142.241538, 1488855142.241538, -0.932861, +0.068726, -0.168579, +22.349140, -79.194023, +31.703985 
1488855142.245291, 1488855142.245291, -0.932861, +0.068726, -0.168579, +22.349140, -79.194023, +31.703985 
1488855142.249037, 1488855142.249037, -0.981567, +0.176270, -0.435303, +30.894062, -65.522148, +33.016243 
1488855142.252783, 1488855142.252783, -0.981567, +0.176270, -0.435303, +30.894062, -65.522148, +33.016243 
1488855142.256569, 1488855142.256569, -0.981567, +0.176270, -0.435303, +30.894062, -65.522148, +33.016243 
1488855142.260314, 1488855142.260314, -0.981567, +0.176270, -0.435303, +34.205219, -51.270439, +29.064215 
1488855142.264084, 1488855142.264084, -0.981567, +0.176270, -0.435303, +34.205219, -51.270439, +29.064215 
1488855142.267830, 1488855142.267830, -1.211182, +0.377075, -0.259155, +34.205219, -51.270439, +29.064215 
1488855142.271573, 1488855142.271573, -1.211182, +0.377075, -0.259155, +20.441792, -46.433403, +19.344366 
1488855142.275637, 1488855142.275637, -1.211182, +0.377075, -0.259155, +20.441792, -46.433403, +19.344366 
1488855142.279824, 1488855142.279824, -1.211182, +0.377075, -0.259155, +20.441792, -40.253593, +6.313360 
1488855142.284006, 1488855142.284006, -1.211182, +0.377075, -0.259155, +2.772114, -40.253593, +6.313360 
1488855142.287942, 1488855142.287942, -1.092285, +0.240967, -0.132080, +2.772114, -40.253593, +6.313360 
1488855142.292128, 1488855142.292128, -1.092285, +0.240967, -0.132080, -6.551006, -35.263969, -2.658808 
1488855142.295873, 1488855142.295873, -1.092285, +0.240967, -0.132080, -6.551006, -35.263969, -2.658808 
1488855142.299612, 1488855142.299612, -1.092285, +0.240967, -0.132080, -6.551006, -35.263969, -2.658808 
1488855142.303353, 1488855142.303353, -1.092285, +0.240967, -0.132080, -5.788067, -25.971365, -7.511103 
1488855142.307086, 1488855142.307086, -1.074829, +0.169189, -0.198608, -5.788067, -25.971365, -7.511103 
1488855142.310828, 1488855142.310828, -1.074829, +0.169189, -0.198608, -5.788067, -25.971365, -7.511103 
1488855142.314629, 1488855142.314629, -1.074829, +0.169189, -0.198608, +1.108906, -20.264578, -5.786860 
1488855142.318368, 1488855142.318368, -1.074829, +0.169189, -0.198608, +1.108906, -20.264578, -5.786860 
1488855142.322098, 1488855142.322098, -1.074829, +0.169189, -0.198608, +1.108906, -20.264578, -5.786860 
1488855142.325852, 1488855142.325852, -1.074829, +0.192749, -0.226318, +4.694721, -14.862967, -5.496943 
1488855142.329594, 1488855142.329594, -1.091919, +0.192749, -0.226318, +4.694721, -14.862967, -5.496943 
1488855142.333470, 1488855142.333470, -1.091919, +0.192749, -0.226318, +4.694721, -14.862967, -5.496943 
1488855142.337229, 1488855142.337229, -1.091919, +0.192749, -0.226318, +8.814594, -12.345266, -2.017939 
1488855142.340971, 1488855142.340971, -1.091919, +0.192749, -0.226318, +8.814594, -12.345266, -2.017939 
1488855142.344892, 1488855142.344892, -1.091919, +0.192749, -0.226318, +8.814594, -12.345266, -3.208124 
1488855142.348821, 1488855142.348821, -1.085205, +0.229004, -0.277466, +11.027119, -11.109304, -3.208124 
1488855142.352763, 1488855142.352763, -1.085205, +0.229004, -0.277466, +11.027119, -11.109304, -3.208124 
1488855142.356530, 1488855142.356530, -1.085205, +0.229004, -0.277466, +3.687641, -11.429739, -4.016840 
1488855142.360276, 1488855142.360276, -1.085205, +0.229004, -0.277466, +3.687641, -11.429739, -4.016840 
1488855142.364112, 1488855142.364112, -1.085205, +0.229004, -0.277466, +3.687641, -11.429739, -4.016840 
1488855142.368045, 1488855142.368045, -1.106689, +0.202515, -0.344238, -3.926495, -13.825369, -5.756342 
1488855142.371988, 1488855142.371988, -1.106689, +0.202515, -0.344238, -3.926495, -13.825369, -5.756342 
1488855142.375798, 1488855142.375798, -1.106689, +0.202515, -0.344238, -3.926495, -13.825369, -5.756342 
1488855142.379539, 1488855142.379539, -1.106689, +0.202515, -0.344238, -12.593487, -18.555593, -4.947626 
1488855142.383422, 1488855142.383422, -1.106689, +0.202515, -0.344238, -12.593487, -18.555593, -4.947626 
1488855142.387177, 1488855142.387177, -1.108032, +0.173828, -0.415649, -12.593487, -18.555593, -4.947626 
1488855142.390920, 1488855142.390920, -1.108032, +0.173828, -0.415649, -21.519878, -27.543020, -5.008661 
1488855142.394792, 1488855142.394792, -1.108032, +0.173828, -0.415649, -21.519878, -27.543020, -5.008661 
1488855142.398558, 1488855142.398558, -1.108032, +0.173828, -0.415649, -21.519878, -27.543020, -5.008661 
1488855142.402457, 1488855142.402457, -1.108032, +0.173828, -0.415649, -30.019024, -34.668877, -4.032099 
1488855142.406419, 1488855142.406419, -1.115601, +0.236450, -0.530518, -30.019024, -34.668877, -4.032099 
1488855142.410160, 1488855142.410160, -1.115601, +0.236450, -0.530518, -30.019024, -34.668877, +1.018560 
1488855142.414008, 1488855142.414008, -1.115601, +0.236450, -0.530518, -32.857159, -43.793633, +1.018560 
1488855142.417752, 1488855142.417752, -1.115601, +0.236450, -0.530518, -32.857159, -43.793633, +1.018560 
1488855142.421487, 1488855142.421487, -1.115601, +0.236450, -0.530518, -36.763409, -50.400688, +5.718267 
1488855142.425434, 1488855142.425434, -1.084351, +0.159424, -0.481689, -37.419537, -50.400688, +5.718267 
1488855142.429175, 1488855142.429175, -1.091431, +0.159424, -0.481689, -37.419537, -50.400688, +5.718267 
1488855142.432912, 1488855142.432912, -1.091431, +0.159424, -0.481689, -37.953594, -57.145073, +11.806524 
1488855142.436706, 1488855142.436706, -1.091431, +0.159424, -0.481689, -37.953594, -57.145073, +11.806524 
1488855142.440447, 1488855142.440447, -1.091431, +0.159424, -0.481689, -37.953594, -57.145073, +11.806524 
1488855142.444251, 1488855142.444251, -1.091431, +0.159424, -0.262939, -34.032085, -58.991386, +15.575445 
1488855142.447994, 1488855142.447994, -1.146484, +0.273193, -0.281128, -34.032085, -58.991386, +15.575445 
1488855142.451740, 1488855142.451740, -1.146484, +0.273193, -0.281128, -34.032085, -58.991386, +15.575445 
1488855142.455526, 1488855142.455526, -1.146484, +0.273193, -0.281128, -33.391216, -59.143974, +18.367804 
1488855142.459269, 1488855142.459269, -1.146484, +0.273193, -0.281128, -33.391216, -59.143974, +18.367804 
1488855142.463112, 1488855142.463112, -1.146484, +0.273193, -0.281128, -33.391216, -59.143974, +18.367804 
1488855142.466863, 1488855142.466863, -1.142090, +0.279297, -0.143066, -39.342144, -59.479668, +17.437017 
1488855142.470603, 1488855142.470603, -1.142090, +0.279297, -0.143066, -39.342144, -59.479668, +17.437017 
1488855142.474418, 1488855142.474418, -1.142090, +0.279297, -0.143066, -39.342144, -59.479668, +17.437017 
1488855142.478162, 1488855142.478162, -1.142090, +0.279297, -0.143066, -42.577007, -59.693291, +16.613043 
1488855142.481904, 1488855142.481904, -1.142090, +0.279297, -0.143066, -42.577007, -59.693291, +16.613043 
1488855142.485808, 1488855142.485808, -1.121948, +0.048340, -0.042358, -42.577007, -59.693291, +12.706793 
1488855142.489751, 1488855142.489751, -1.121948, +0.048340, -0.042358, -46.559551, -62.226250, +14.537848 
1488855142.493711, 1488855142.493711, -1.121948, +0.048340, -0.042358, -46.559551, -62.226250, +14.537848 
1488855142.497657, 1488855142.497657, -1.121948, +0.048340, -0.042358, -38.747051, -65.155937, +14.385260 
1488855142.501605, 1488855142.501605, -1.121948, +0.048340, -0.042358, -38.212994, -65.155937, +14.385260 
1488855142.505567, 1488855142.505567, -1.114014, -0.044189, -0.159424, -38.212994, -65.155937, +14.385260 
1488855142.509517, 1488855142.509517, -1.114014, -0.044189, -0.159424, -28.187969, -66.636040, +15.071905 
1488855142.513471, 1488855142.513471, -1.114014, -0.044189, -0.159424, -28.187969, -66.636040, +15.071905 
1488855142.517424, 1488855142.517424, -1.114014, -0.044189, -0.159424, -28.187969, -66.636040, +15.071905 
1488855142.521489, 1488855142.521489, -1.114014, -0.044189, -0.159424, -16.438702, -67.643120, +18.901861 
1488855142.525725, 1488855142.525725, -1.251709, +0.106079, -0.132080, -16.438702, -67.643120, +18.901861 
1488855142.529675, 1488855142.529675, -1.251709, +0.106079, -0.132080, -16.438702, -67.643120, +20.442999 
1488855142.533675, 1488855142.533675, -1.251709, +0.106079, -0.132080, -10.228374, -69.260551, +20.442999 
1488855142.537620, 1488855142.537620, -1.251709, +0.106079, -0.132080, -10.228374, -69.260551, +20.442999 
1488855142.541570, 1488855142.541570, -1.251709, +0.106079, -0.132080, -6.337383, -72.953178, +20.763433 
1488855142.545406, 1488855142.545406, -1.337402, +0.228760, -0.210693, -6.337383, -72.953178, +20.763433 
1488855142.549156, 1488855142.549156, -1.337402, +0.228760, -0.210693, -6.337383, -72.953178, +20.763433 
1488855142.552892, 1488855142.552892, -1.337402, +0.228760, -0.210693, -6.566265, -77.774956, +21.495855 
1488855142.556649, 1488855142.556649, -1.337402, +0.228760, -0.210693, -6.566265, -77.774956, +21.495855 
1488855142.560402, 1488855142.560402, -1.337402, +0.228760, -0.210693, -6.566265, -77.774956, +21.495855 
1488855142.564150, 1488855142.564150, -1.462402, +0.338135, -0.310913, -8.137920, -84.717705, +23.815191 
1488855142.567905, 1488855142.567905, -1.439697, +0.338135, -0.310913, -8.137920, -84.717705, +23.815191 
1488855142.571767, 1488855142.571767, -1.439697, +0.338135, -0.310913, -8.137920, -84.717705, +23.815191 
1488855142.575703, 1488855142.575703, -1.439697, +0.338135, -0.310913, -10.136822, -91.462090, +26.622808 
1488855142.579456, 1488855142.579456, -1.439697, +0.338135, -0.310913, -10.136822, -91.462090, +26.622808 
1488855142.583375, 1488855142.583375, -1.439697, +0.338135, -0.390869, -10.136822, -91.462090, +26.622808 
1488855142.587317, 1488855142.587317, -1.577759, +0.275513, -0.390869, -13.905743, -97.779228, +29.827154 
1488855142.591266, 1488855142.591266, -1.577759, +0.275513, -0.390869, -13.905743, -97.779228, +29.827154 
1488855142.595121, 1488855142.595121, -1.577759, +0.275513, -0.390869, -13.905743, -97.779228, +33.062019 
1488855142.598870, 1488855142.598870, -1.577759, +0.275513, -0.390869, -20.650127, -106.537773, +33.062019 
1488855142.602626, 1488855142.602626, -1.577759, +0.275513, -0.390869, -20.650127, -106.537773, +33.062019 
1488855142.606569, 1488855142.606569, -1.656982, +0.033936, -0.416992, -24.556377, -115.494682, +36.647835 
1488855142.610522, 1488855142.610522, -1.656982, +0.033936, -0.416992, -26.234844, -115.494682, +36.647835 
1488855142.614481, 1488855142.614481, -1.656982, +0.033936, -0.416992, -26.234844, -115.494682, +36.647835 
1488855142.618422, 1488855142.618422, -1.656982, +0.033936, -0.416992, -27.943829, -124.451591, +40.889778 
1488855142.622368, 1488855142.622368, -1.656982, +0.033936, -0.416992, -27.943829, -124.451591, +40.889778 
1488855142.626318, 1488855142.626318, -1.805908, -0.051392, -0.359863, -27.943829, -124.451591, +40.889778 
1488855142.630276, 1488855142.630276, -1.805908, -0.051392, -0.359863, -33.925274, -135.941452, +44.994392 
1488855142.634229, 1488855142.634229, -1.805908, -0.051392, -0.359863, -33.925274, -135.941452, +44.994392 
1488855142.638176, 1488855142.638176, -1.805908, -0.051392, -0.359863, -33.925274, -135.941452, +44.994392 
1488855142.642259, 1488855142.642259, -1.805908, -0.051392, -0.578613, -41.783550, -145.844406, +45.909920 
1488855142.646367, 1488855142.646367, -1.927856, -0.135498, -0.565918, -41.783550, -145.844406, +45.909920 
1488855142.650118, 1488855142.650118, -1.927856, -0.135498, -0.565918, -45.689800, -153.794235, +49.190559 
1488855142.653920, 1488855142.653920, -1.927856, -0.135498, -0.565918, -45.262554, -153.794235, +49.190559 
1488855142.657877, 1488855142.657877, -1.927856, -0.135498, -0.565918, -45.262554, -153.794235, +49.190559 
1488855142.661826, 1488855142.661826, -1.927856, -0.135498, -0.565918, -50.862530, -162.491745, +57.262459 
1488855142.665784, 1488855142.665784, -2.220947, +0.124634, -0.913208, -50.862530, -162.491745, +57.262459 
1488855142.669732, 1488855142.669732, -2.220947, +0.124634, -0.913208, -50.862530, -162.491745, +57.262459 
1488855142.673671, 1488855142.673671, -2.220947, +0.124634, -0.913208, -71.034653, -167.527145, +55.965462 
1488855142.677428, 1488855142.677428, -2.220947, +0.124634, -0.913208, -71.034653, -167.527145, +55.965462 
1488855142.681172, 1488855142.681172, -2.220947, +0.124634, -0.913208, -71.034653, -167.527145, +55.965462 
1488855142.684934, 1488855142.684934, -2.303955, +0.073364, -1.456543, -108.525497, -172.913498, +48.473396 
1488855142.688686, 1488855142.688686, -2.303955, +0.073364, -1.456543, -108.525497, -172.913498, +48.473396 
1488855142.692444, 1488855142.692444, -2.303955, +0.073364, -1.456543, -108.525497, -172.913498, +48.473396 
1488855142.696310, 1488855142.696310, -2.303955, +0.073364, -1.456543, -142.033798, -175.629562, +43.865242 
1488855142.700061, 1488855142.700061, -2.303955, +0.073364, -1.456543, -142.033798, -175.629562, +43.865242 
1488855142.704005, 1488855142.704005, -1.839722, -0.406006, -1.601562, -142.033798, -175.629562, +35.717049 
1488855142.707956, 1488855142.707956, -1.839722, -0.406006, -1.601562, -149.220688, -169.922775, +35.717049 
1488855142.711904, 1488855142.711904, -1.839722, -0.406006, -1.601562, -149.220688, -169.922775, +35.717049 
1488855142.715893, 1488855142.715893, -1.839722, -0.406006, -1.601562, -148.701889, -172.715134, +25.753057 
1488855142.719953, 1488855142.719953, -1.839722, -0.406006, -1.601562, -148.701889, -172.715134, +25.753057 
1488855142.723914, 1488855142.723914, -2.384888, +0.084106, -0.607056, -148.701889, -172.715134, +25.753057 
1488855142.727863, 1488855142.727863, -2.384888, +0.084106, -0.607056, -140.614731, -189.225143, +41.027107 
1488855142.731805, 1488855142.731805, -2.384888, +0.084106, -0.607056, -140.614731, -189.225143, +41.027107 
1488855142.735625, 1488855142.735625, -2.384888, +0.084106, -0.607056, -140.614731, -189.225143, +41.027107 
1488855142.739371, 1488855142.739371, -2.384888, +0.084106, -0.607056, -114.094955, -184.342331, +60.909309 
1488855142.743218, 1488855142.743218, -2.141357, +0.592651, -0.612671, -114.094955, -184.342331, +60.909309 
1488855142.747004, 1488855142.747004, -2.141357, +0.592651, -0.612671, -114.094955, -184.342331, +60.909309 
1488855142.750758, 1488855142.750758, -2.141357, +0.592651, -0.612671, -100.575668, -170.105881, +68.706551 
1488855142.754765, 1488855142.754765, -2.141357, +0.592651, -0.612671, -100.575668, -170.105881, +68.706551 
1488855142.758678, 1488855142.758678, -2.141357, +0.592651, -0.612671, -100.575668, -155.381149, +61.031380 
1488855142.763155, 1488855142.763155, -1.680054, +0.866211, -0.182007, -90.825302, -155.381149, +61.031380 
1488855142.767178, 1488855142.767178, -1.680054, +0.866211, -0.182007, -90.825302, -155.381149, +61.031380 
1488855142.771104, 1488855142.771104, -1.680054, +0.866211, -0.182007, -29.561260, -147.904343, +58.223763 
1488855142.775166, 1488855142.775166, -1.680054, +0.866211, -0.182007, -29.561260, -147.904343, +58.223763 
1488855142.779086, 1488855142.779086, -1.680054, +0.866211, -0.182007, -29.561260, -147.904343, +58.223763 
1488855142.783020, 1488855142.783020, -1.219604, +0.732056, +0.986328, -0.676373, -130.265182, +44.826546 
1488855142.787013, 1488855142.787013, -1.219604, +0.732056, +0.986328, -0.676373, -130.265182, +44.826546 
1488855142.790931, 1488855142.790931, -1.219604, +0.732056, +0.986328, -0.676373, -130.265182, +33.565559 
1488855142.794926, 1488855142.794926, -1.219604, +0.732056, +0.986328, -0.203350, -139.847702, +33.565559 
1488855142.798673, 1488855142.798673, -1.219604, +0.732056, +0.986328, -0.203350, -139.847702, +33.565559 
1488855142.802424, 1488855142.802424, -0.469604, +0.160400, +0.672852, -0.203350, -139.435715, +22.274054 
1488855142.806272, 1488855142.806272, -0.492065, +0.160400, +0.672852, +28.620502, -139.435715, +22.274054 
1488855142.810026, 1488855142.810026, -0.492065, +0.160400, +0.672852, +28.620502, -139.435715, +22.274054 
1488855142.813816, 1488855142.813816, -0.492065, +0.160400, +0.672852, +52.408955, -98.542168, +3.139532 
1488855142.817659, 1488855142.817659, -0.492065, +0.160400, +0.672852, +52.408955, -98.542168, +3.139532 
1488855142.821415, 1488855142.821415, -0.492065, +0.160400, +0.295166, +52.408955, -98.542168, +3.139532 
1488855142.825425, 1488855142.825425, -0.139160, +0.218628, +0.295166, +64.615982, -70.893242, -8.319818 
1488855142.829369, 1488855142.829369, -0.139160, +0.218628, +0.295166, +64.615982, -70.893242, -8.319818 
1488855142.833325, 1488855142.833325, -0.139160, +0.218628, +0.295166, +64.615982, -70.893242, -8.319818 
1488855142.837276, 1488855142.837276, -0.139160, +0.218628, +0.295166, +84.330338, -52.658989, -16.422235 
1488855142.841219, 1488855142.841219, -0.139160, +0.218628, +0.072754, +84.330338, -52.658989, -16.422235 
1488855142.845079, 1488855142.845079, +0.187134, +0.119019, +0.072754, +84.330338, -52.658989, -16.422235 
1488855142.848825, 1488855142.848825, +0.187134, +0.119019, +0.072754, +99.512833, -28.153372, -25.501215 
1488855142.852579, 1488855142.852579, +0.187134, +0.119019, +0.072754, +99.512833, -28.153372, -25.501215 
1488855142.856549, 1488855142.856549, +0.187134, +0.119019, +0.072754, +99.512833, +7.002878, -31.986200 
1488855142.860491, 1488855142.860491, +0.187134, +0.119019, +0.072754, +100.474136, +5.888987, -31.986200 
1488855142.864489, 1488855142.864489, +0.323486, +0.177856, -0.259888, +100.474136, +5.888987, -31.986200 
1488855142.868541, 1488855142.868541, +0.323486, +0.177856, -0.259888, +93.363541, +42.449043, -38.135490 
1488855142.872492, 1488855142.872492, +0.323486, +0.177856, -0.259888, +93.363541, +42.449043, -38.135490 
1488855142.876442, 1488855142.876442, +0.323486, +0.177856, -0.259888, +93.363541, +42.449043, -38.135490 
1488855142.880496, 1488855142.880496, +0.323486, +0.177856, -0.259888, +79.630630, +70.677803, -49.121819 
1488855142.884638, 1488855142.884638, +0.180542, +0.194214, -0.186279, +79.630630, +70.677803, -49.121819 
1488855142.888874, 1488855142.888874, +0.180542, +0.194214, -0.186279, +79.630630, +70.677803, -61.267815 
1488855142.892832, 1488855142.892832, +0.180542, +0.194214, -0.186279, +58.634541, +87.142036, -61.267815 
1488855142.896597, 1488855142.896597, +0.180542, +0.194214, -0.186279, +58.634541, +87.142036, -61.267815 
1488855142.900352, 1488855142.900352, +0.180542, +0.194214, -0.186279, +58.634541, +99.410103, -72.589836 
1488855142.904170, 1488855142.904170, +0.173462, +0.120117, -0.047607, +41.239521, +99.410103, -72.589836 
1488855142.908117, 1488855142.908117, +0.173462, +0.120117, -0.047607, +41.239521, +99.410103, -72.589836 
1488855142.912062, 1488855142.912062, +0.173462, +0.120117, -0.047607, +35.456440, +114.073799, -82.813225 
1488855142.915865, 1488855142.915865, +0.173462, +0.120117, -0.047607, +35.456440, +114.073799, -82.813225 
1488855142.919620, 1488855142.919620, +0.173462, +0.120117, -0.047607, +35.456440, +114.073799, -82.813225 
1488855142.923370, 1488855142.923370, +0.202271, +0.086426, -0.061401, +38.874409, +131.148392, -92.060051 
1488855142.927126, 1488855142.927126, +0.202271, +0.086426, -0.061401, +38.874409, +131.148392, -92.060051 
1488855142.930875, 1488855142.930875, +0.202271, +0.086426, -0.061401, +38.874409, +131.148392, -92.060051 
1488855142.934764, 1488855142.934764, +0.202271, +0.086426, -0.061401, +45.313618, +149.001175, -99.353752 
1488855142.938519, 1488855142.938519, +0.202271, +0.086426, -0.061401, +45.313618, +149.001175, -99.353752 
1488855142.942274, 1488855142.942274, +0.143066, +0.090332, -0.149048, +45.313618, +149.001175, -99.353752 
1488855142.946152, 1488855142.946152, +0.143066, +0.090332, -0.149048, +50.852558, +165.633255, -105.792961 
1488855142.949904, 1488855142.949904, +0.143066, +0.090332, -0.149048, +50.852558, +165.633255, -105.792961 
1488855142.953720, 1488855142.953720, +0.143066, +0.090332, -0.149048, +50.852558, +165.633255, -105.792961 
1488855142.957634, 1488855142.957634, +0.143066, +0.090332, -0.149048, +53.766987, +181.593948, -111.637077 
1488855142.961555, 1488855142.961555, +0.035034, +0.045044, -0.290039, +53.766987, +181.593948, -111.637077 
1488855142.965475, 1488855142.965475, +0.035034, +0.045044, -0.290039, +53.766987, +197.218948, -118.732414 
1488855142.969393, 1488855142.969393, +0.035034, +0.045044, -0.290039, +54.972431, +197.035843, -118.732414 
1488855142.973327, 1488855142.973327, +0.035034, +0.045044, -0.290039, +54.972431, +197.035843, -118.732414 
1488855142.977329, 1488855142.977329, +0.035034, +0.045044, -0.290039, +54.682514, +211.272293, -126.163445 
1488855142.981290, 1488855142.981290, -0.126465, -0.007324, -0.357422, +54.682514, +211.272293, -126.163445 
1488855142.985285, 1488855142.985285, -0.126465, -0.007324, -0.357422, +54.682514, +211.272293, -126.163445 
1488855142.989235, 1488855142.989235, -0.126465, -0.007324, -0.357422, +51.600239, +223.296219, -133.228271 
1488855142.993233, 1488855142.993233, -0.126465, -0.007324, -0.357422, +51.600239, +223.296219, -133.228271 
1488855142.996985, 1488855142.996985, -0.126465, -0.007324, -0.357422, +51.600239, +223.296219, -133.228271 
1488855143.000842, 1488855143.000842, -0.220215, +0.001343, -0.322510, +47.449848, +233.183914, -138.309448 
1488855143.005110, 1488855143.005110, -0.246826, +0.001343, -0.322510, +47.449848, +233.183914, -138.309448 
1488855143.009066, 1488855143.009066, -0.246826, +0.001343, -0.322510, +47.449848, +242.445999, -141.056030 
1488855143.013027, 1488855143.013027, -0.246826, +0.001343, -0.322510, +43.345234, +242.445999, -141.056030 
1488855143.017092, 1488855143.017092, -0.246826, +0.001343, -0.322510, +43.345234, +242.445999, -141.056030 
1488855143.021050, 1488855143.021050, -0.325684, +0.085571, -0.283081, +39.530537, +253.310257, -142.246216 
1488855143.025002, 1488855143.025002, -0.325684, +0.085571, -0.283081, +39.530537, +253.310257, -142.246216 
1488855143.028954, 1488855143.028954, -0.325684, +0.085571, -0.283081, +39.530537, +253.310257, -142.246216 
1488855143.032896, 1488855143.032896, -0.325684, +0.085571, -0.283081, +38.416645, +264.357605, -143.466919 
1488855143.036648, 1488855143.036648, -0.325684, +0.085571, -0.283081, +38.416645, +264.357605, -143.466919 
1488855143.040396, 1488855143.040396, -0.513184, +0.150635, -0.223389, +38.416645, +264.357605, -143.466919 
1488855143.044159, 1488855143.044159, -0.507568, +0.150635, -0.223389, +40.812275, +275.466003, -144.367188 
1488855143.047903, 1488855143.047903, -0.507568, +0.150635, -0.223389, +40.812275, +275.466003, -144.367188 
1488855143.051655, 1488855143.051655, -0.507568, +0.150635, -0.223389, +40.812275, +275.466003, -144.367188 
1488855143.055532, 1488855143.055532, -0.507568, +0.150635, -0.223389, +46.732685, +286.330261, -144.519775 
1488855143.059275, 1488855143.059275, -0.507568, +0.150635, -0.223389, +46.732685, +286.330261, -144.519775 
1488855143.063115, 1488855143.063115, -0.745483, +0.094360, -0.286255, +46.732685, +286.330261, -143.482178 
1488855143.067038, 1488855143.067038, -0.745483, +0.094360, -0.286255, +53.141376, +300.383606, -143.482178 
1488855143.070962, 1488855143.070962, -0.745483, +0.094360, -0.286255, +53.141376, +300.383606, -143.482178 
1488855143.074871, 1488855143.074871, -0.745483, +0.094360, -0.286255, +66.187637, +313.384094, -139.621704 
1488855143.078823, 1488855143.078823, -0.745483, +0.094360, -0.286255, +66.187637, +313.384094, -139.621704 
1488855143.082777, 1488855143.082777, -1.125488, +0.271851, -0.351196, +66.187637, +313.384094, -139.621704 
1488855143.086733, 1488855143.086733, -1.125488, +0.271851, -0.351196, +84.788101, +324.675598, -135.227173 
1488855143.090686, 1488855143.090686, -1.125488, +0.271851, -0.351196, +84.788101, +324.675598, -135.227173 
1488855143.094618, 1488855143.094618, -1.125488, +0.271851, -0.351196, +84.788101, +324.675598, -135.227173 
1488855143.098375, 1488855143.098375, -1.125488, +0.271851, -0.351196, +102.976578, +334.807434, -131.168335 
1488855143.102117, 1488855143.102117, -1.787231, +0.369629, -0.293091, +102.976578, +334.807434, -131.168335 
1488855143.105910, 1488855143.105910, -1.787231, +0.369629, -0.293091, +102.976578, +334.807434, -131.168335 
1488855143.109655, 1488855143.109655, -1.787231, +0.369629, -0.293091, +102.885025, +339.751282, -133.945435 
1488855143.113485, 1488855143.113485, -1.787231, +0.369629, -0.293091, +102.885025, +339.751282, -133.945435 
1488855143.117432, 1488855143.117432, -1.787231, +0.369629, -0.293091, +102.885025, +339.751282, -133.121460 
1488855143.121572, 1488855143.121572, -2.931274, +0.882202, +0.199707, +84.513443, +331.481018, -133.121460 
1488855143.125928, 1488855143.125928, -2.931274, +0.882202, +0.199707, +84.513443, +331.481018, -133.121460 
1488855143.129877, 1488855143.129877, -2.931274, +0.882202, +0.199707, +89.182632, +313.994446, -116.352043 
1488855143.133874, 1488855143.133874, -2.931274, +0.882202, +0.199707, +89.182632, +313.994446, -116.352043 
1488855143.137824, 1488855143.137824, -2.931274, +0.882202, +0.199707, +89.182632, +313.994446, -116.352043 
1488855143.141771, 1488855143.141771, -3.147583, +1.239868, +0.612549, +102.564590, +303.465881, -105.457268 
1488855143.145599, 1488855143.145599, -3.147583, +1.239868, +0.612549, +102.564590, +303.465881, -105.457268 
1488855143.149347, 1488855143.149347, -3.147583, +1.239868, +0.612549, +102.564590, +303.465881, -105.457268 
1488855143.153093, 1488855143.153093, -3.147583, +1.239868, +0.612549, +86.664932, +280.547180, -107.700310 
1488855143.156846, 1488855143.156846, -3.147583, +1.239868, +0.612549, +86.664932, +280.547180, -107.700310 
1488855143.160701, 1488855143.160701, -3.086548, +1.348267, +0.892944, +86.664932, +280.547180, -107.700310 
1488855143.164466, 1488855143.164466, -3.086548, +1.348267, +0.892944, +67.179459, +229.048782, -104.709587 
1488855143.168221, 1488855143.168221, -3.086548, +1.348267, +0.892944, +67.179459, +229.048782, -104.709587 
1488855143.171973, 1488855143.171973, -3.086548, +1.348267, +0.892944, +67.179459, +229.048782, -89.572868 
1488855143.175893, 1488855143.175893, -3.086548, +1.348267, +0.892944, +63.227436, +164.046341, -89.572868 
1488855143.179651, 1488855143.179651, -2.667847, +1.472900, +1.288330, +63.227436, +164.046341, -89.572868 
1488855143.183417, 1488855143.183417, -2.667847, +1.472900, +1.288330, +63.227436, +101.866768, -56.568108 
1488855143.187174, 1488855143.187174, -2.667847, +1.472900, +1.288330, +67.591446, +101.866768, -56.568108 
1488855143.190919, 1488855143.190919, -2.667847, +1.472900, +1.288330, +67.591446, +101.866768, -56.568108 
1488855143.194773, 1488855143.194773, -2.667847, +1.472900, +1.288330, +62.540791, +55.861519, -14.423334 
1488855143.198782, 1488855143.198782, -2.667847, +1.535400, +1.328003, +62.540791, +55.861519, -14.423334 
1488855143.202524, 1488855143.202524, -2.331543, +1.548706, +1.328003, +62.540791, +55.861519, -14.423334 
1488855143.206571, 1488855143.206571, -2.331543, +1.548706, +1.328003, +38.401386, +19.530344, +21.877325 
1488855143.210907, 1488855143.210907, -2.331543, +1.548706, +1.328003, +38.401386, +19.530344, +21.877325 
1488855143.214751, 1488855143.214751, -2.331543, +1.548706, +1.328003, +38.401386, +19.530344, +21.877325 
1488855143.218494, 1488855143.218494, -2.331543, +0.079956, +0.260010, +9.287617, -28.992605, +46.566048 
1488855143.222233, 1488855143.222233, -1.737549, +0.063721, +0.260010, +9.287617, -28.992605, +46.566048 
1488855143.225990, 1488855143.225990, -1.737549, +0.063721, +0.260010, +9.287617, -28.992605, +46.566048 
1488855143.229727, 1488855143.229727, -1.737549, +0.063721, +0.260010, +11.835835, -63.935234, +36.586800 
1488855143.233500, 1488855143.233500, -1.737549, +0.063721, +0.260010, +11.835835, -63.935234, +36.586800 
1488855143.237241, 1488855143.237241, -1.737549, +0.063721, +0.260010, +11.835835, -63.935234, -33.725700 
1488855143.240986, 1488855143.240986, -1.190308, -3.245850, -3.477539, +46.107075, +1.997995, -33.252678 
1488855143.244723, 1488855143.244723, -1.190308, -3.245850, -3.477539, +46.107075, +1.997995, -33.252678 
1488855143.248462, 1488855143.248462, -1.190308, -3.245850, -3.477539, +46.107075, +13.716745, -28.110468 
1488855143.252203, 1488855143.252203, -1.190308, -3.245850, -3.477539, +50.608418, +15.090036, -28.110468 
1488855143.256089, 1488855143.256089, -1.190308, -3.245850, -3.477539, +50.608418, +15.090036, -28.110468 
1488855143.259829, 1488855143.259829, -3.159668, +0.885864, +1.903198, +19.358418, -139.267868, +22.243536 
1488855143.263677, 1488855143.263677, -3.159668, +0.885864, +1.903198, +19.739887, -139.267868, +22.243536 
1488855143.267411, 1488855143.267411, -3.159668, +0.885864, +1.903198, +19.739887, -139.267868, +22.243536 
1488855143.271149, 1488855143.271149, -3.159668, +0.885864, +1.903198, -72.331650, -217.026657, +44.567146 
1488855143.274899, 1488855143.274899, -3.159668, +0.885864, +1.903198, -72.331650, -217.026657, +44.567146 
1488855143.278640, 1488855143.278640, -1.027466, +0.258789, -1.386963, -72.331650, -217.026657, +44.567146 
1488855143.282382, 1488855143.282382, -1.027466, +0.258789, -1.386963, -98.820908, -133.988327, +53.340950 
1488855143.286182, 1488855143.286182, -1.027466, +0.258789, -1.386963, -98.820908, -133.988327, +53.340950 
1488855143.289924, 1488855143.289924, -1.027466, +0.258789, -1.386963, -98.820908, -133.988327, +53.340950 
1488855143.293742, 1488855143.293742, -1.027466, +0.258789, -1.386963, -129.170639, -72.068169, +111.736336 
1488855143.297685, 1488855143.297685, -1.027466, +0.258789, +0.359985, -129.170639, -72.068169, +111.736336 
1488855143.301629, 1488855143.301629, -2.189819, +0.597778, +0.359985, -129.170639, -72.068169, +111.736336 
1488855143.305697, 1488855143.305697, -2.189819, +0.597778, +0.359985, -71.980698, -97.107841, +168.346436 
1488855143.309640, 1488855143.309640, -2.189819, +0.597778, +0.359985, -71.980698, -97.107841, +168.346436 
1488855143.313604, 1488855143.313604, -2.189819, +0.597778, +0.359985, -71.980698, -97.107841, +130.580933 
1488855143.317547, 1488855143.317547, -2.189819, +0.597778, -0.074097, +27.460835, -95.902397, +130.580933 
1488855143.321665, 1488855143.321665, -1.467407, -0.661621, -0.074097, +27.460835, -95.902397, +130.580933 
1488855143.325923, 1488855143.325923, -1.467407, -0.661621, -0.074097, +97.773331, -104.752495, +83.599129 
1488855143.329873, 1488855143.329873, -1.467407, -0.661621, -0.074097, +97.773331, -104.752495, +83.599129 
1488855143.333787, 1488855143.333787, -1.467407, -0.661621, -0.074097, +97.773331, -104.752495, +83.599129 
1488855143.337538, 1488855143.337538, -1.467407, +1.213379, -0.591309, +146.097916, -134.217209, +82.180061 
1488855143.341286, 1488855143.341286, -0.602051, +1.190552, -0.591309, +146.097916, -134.217209, +82.180061 
1488855143.345160, 1488855143.345160, -0.602051, +1.190552, -0.591309, +146.097916, -134.217209, +82.180061 
1488855143.349102, 1488855143.349102, -0.602051, +1.190552, -0.591309, +95.377701, -119.767143, +64.220467 
1488855143.353058, 1488855143.353058, -0.602051, +1.190552, -0.591309, +95.377701, -119.767143, +64.220467 
1488855143.356807, 1488855143.356807, -0.602051, +1.190552, -0.591309, +95.377701, -119.767143, +64.220467 
1488855143.360560, 1488855143.360560, -0.719482, +0.535767, -0.194824, +18.580219, -109.330132, +33.077278 
1488855143.364321, 1488855143.364321, -0.719482, +0.535767, -0.194824, +18.580219, -109.330132, +33.077278 
1488855143.368068, 1488855143.368068, -0.719482, +0.535767, -0.194824, +18.580219, -109.330132, +20.015753 
1488855143.371817, 1488855143.371817, -0.719482, +0.535767, -0.194824, -19.826153, -99.106743, +20.015753 
1488855143.375712, 1488855143.375712, -0.719482, +0.535767, -0.194824, -19.826153, -99.106743, +20.015753 
1488855143.379464, 1488855143.379464, -0.998291, -0.083496, -0.155762, -12.013653, -82.505180, +20.656622 
1488855143.383375, 1488855143.383375, -0.998291, -0.083496, -0.155762, -12.074688, -82.505180, +20.656622 
1488855143.387118, 1488855143.387118, -0.998291, -0.083496, -0.155762, -12.074688, -82.505180, +20.656622 
1488855143.390869, 1488855143.390869, -0.998291, -0.083496, -0.155762, +12.552998, -64.042046, +23.830450 
1488855143.394722, 1488855143.394722, -0.998291, -0.083496, -0.155762, +12.552998, -64.042046, +23.830450 
1488855143.398648, 1488855143.398648, -1.166138, +0.162598, -0.327393, +12.552998, -64.042046, +23.830450 
1488855143.402574, 1488855143.402574, -1.166138, +0.162598, -0.327393, +24.241230, -52.948906, +23.677862 
1488855143.406508, 1488855143.406508, -1.166138, +0.162598, -0.327393, +24.241230, -52.948906, +23.677862 
1488855143.410430, 1488855143.410430, -1.166138, +0.162598, -0.327393, +24.241230, -52.948906, +23.677862 
1488855143.414375, 1488855143.414375, -1.166138, +0.162598, -0.327393, +11.698505, -42.176201, +20.778692 
1488855143.418299, 1488855143.418299, -1.188843, +0.173950, -0.214844, +11.698505, -42.176201, +20.778692 
1488855143.422221, 1488855143.422221, -1.188843, +0.173950, -0.214844, +11.698505, -42.176201, +11.501348 
1488855143.426204, 1488855143.426204, -1.188843, +0.173950, -0.214844, +1.902363, -40.406181, +11.501348 
1488855143.430091, 1488855143.430091, -1.188843, +0.173950, -0.214844, +1.902363, -40.406181, +11.501348 
1488855143.433953, 1488855143.433953, -1.188843, +0.173950, -0.214844, +1.902363, -31.845999, +7.030523 
1488855143.437697, 1488855143.437697, -1.144165, +0.278198, -0.120239, +1.566669, -31.845999, +7.030523 
1488855143.441591, 1488855143.441591, -1.144165, +0.278198, -0.120239, +1.566669, -31.845999, +7.030523 
1488855143.445891, 1488855143.445891, -1.144165, +0.278198, -0.120239, +6.602070, -24.125051, +6.237066 
1488855143.449831, 1488855143.449831, -1.144165, +0.278198, -0.120239, +6.602070, -24.125051, +6.237066 
1488855143.453778, 1488855143.453778, -1.144165, +0.278198, -0.120239, +6.602070, -24.125051, +6.237066 
1488855143.457827, 1488855143.457827, -1.001343, +0.401489, -0.314697, +3.260395, -17.106009, +3.047979 
1488855143.461765, 1488855143.461765, -1.001343, +0.401489, -0.314697, +3.260395, -17.106009, +3.047979 
1488855143.465709, 1488855143.465709, -1.001343, +0.401489, -0.314697, +3.260395, -17.106009, +3.047979 
1488855143.469645, 1488855143.469645, -1.001343, +0.401489, -0.314697, +2.497456, -15.793753, -0.156366 
1488855143.473567, 1488855143.473567, -1.001343, +0.401489, -0.314697, +2.497456, -15.793753, -0.156366 
1488855143.477307, 1488855143.477307, -0.953613, +0.100098, -0.238037, +2.497456, -13.215017, -3.147089 
1488855143.481051, 1488855143.481051, -0.953613, +0.100098, -0.238037, +7.258198, -13.215017, -3.147089 
1488855143.484844, 1488855143.484844, -0.953613, +0.100098, -0.238037, +7.258198, -13.215017, -3.147089 
1488855143.488585, 1488855143.488585, -0.953613, +0.100098, -0.238037, +13.605854, -9.232473, -0.705683 
1488855143.492331, 1488855143.492331, -0.953613, +0.100098, -0.238037, +13.605854, -9.232473, -0.705683 
1488855143.496260, 1488855143.496260, -0.953613, +0.100098, -0.271240, +13.605854, -9.232473, -0.705683 
1488855143.500000, 1488855143.500000, -1.103882, +0.227539, -0.271240, +16.306660, -5.021048, +0.347174 
1488855143.503858, 1488855143.503858, -1.103882, +0.227539, -0.271240, +16.306660, -5.021048, +0.347174 
1488855143.507803, 1488855143.507803, -1.103882, +0.227539, -0.271240, +16.306660, -5.021048, +0.347174 
1488855143.511740, 1488855143.511740, -1.103882, +0.227539, -0.271240, +7.700703, -5.265188, -3.208124 
1488855143.515683, 1488855143.515683, -1.103882, +0.227539, -0.302490, +7.700703, -5.265188, -3.208124 
1488855143.519621, 1488855143.519621, -1.115723, +0.298706, -0.289307, +7.700703, -5.265188, -3.208124 
1488855143.523569, 1488855143.523569, -1.115723, +0.298706, -0.289307, -5.849102, -9.659719, -6.641352 
1488855143.527508, 1488855143.527508, -1.115723, +0.298706, -0.289307, -5.849102, -9.659719, -6.641352 
1488855143.531442, 1488855143.531442, -1.115723, +0.298706, -0.289307, -5.849102, -17.472219, -8.014643 
1488855143.535280, 1488855143.535280, -1.115723, +0.298706, -0.289307, -16.667583, -15.351248, -8.014643 
1488855143.539024, 1488855143.539024, -1.071045, +0.068970, -0.427124, -16.667583, -15.351248, -8.014643 
1488855143.542771, 1488855143.542771, -1.071045, +0.068970, -0.427124, -16.667583, -21.531057, -5.100214 
1488855143.546753, 1488855143.546753, -1.071045, +0.068970, -0.427124, -20.131329, -21.531057, -5.100214 
1488855143.550694, 1488855143.550694, -1.071045, +0.068970, -0.427124, -20.131329, -21.531057, -5.100214 
1488855143.554678, 1488855143.554678, -1.071045, +0.068970, -0.427124, -20.482281, -30.121756, -0.125849 
1488855143.558617, 1488855143.558617, -1.115845, +0.124756, -0.509155, -20.482281, -30.121756, -0.125849 
1488855143.563159, 1488855143.563159, -1.115845, +0.124756, -0.509155, -20.482281, -30.121756, -0.125849 
1488855143.567111, 1488855143.567111, -1.115845, +0.124756, -0.509155, -21.901348, -38.453056, +4.543341 
1488855143.571055, 1488855143.571055, -1.115845, +0.124756, -0.509155, -21.901348, -38.453056, +4.543341 
1488855143.575001, 1488855143.575001, -1.115845, +0.124756, -0.509155, -21.901348, -46.265556, +10.311163 
1488855143.578951, 1488855143.578951, -1.139771, +0.147827, -0.551147, -24.632671, -48.005058, +10.311163 
1488855143.582901, 1488855143.582901, -1.139771, +0.147827, -0.551147, -24.632671, -48.005058, +10.311163 
1488855143.586652, 1488855143.586652, -1.139771, +0.147827, -0.551147, -29.179790, -54.459526, +13.637579 
1488855143.590398, 1488855143.590398, -1.139771, +0.147827, -0.551147, -29.179790, -54.459526, +13.637579 
1488855143.594148, 1488855143.594148, -1.139771, +0.147827, -0.551147, -29.179790, -54.459526, +13.637579 
1488855143.597896, 1488855143.597896, -1.156250, +0.343994, -0.343140, -31.758526, -55.893852, +17.177618 
1488855143.601641, 1488855143.601641, -1.156250, +0.343994, -0.343140, -31.758526, -55.893852, +17.177618 
1488855143.605524, 1488855143.605524, -1.156250, +0.343994, -0.343140, -31.758526, -55.893852, +17.177618 
1488855143.609271, 1488855143.609271, -1.156250, +0.343994, -0.343140, -37.587383, -57.419731, +17.452276 
1488855143.613125, 1488855143.613125, -1.156250, +0.343994, -0.343140, -37.587383, -57.419731, +17.452276 
1488855143.616881, 1488855143.616881, -1.168457, +0.306396, -0.303467, -37.587383, -57.419731, +17.452276 
1488855143.620631, 1488855143.620631, -1.168457, +0.306396, -0.303467, -47.017315, -58.823540, +14.217413 
1488855143.624601, 1488855143.624601, -1.168457, +0.306396, -0.303467, -47.017315, -58.823540, +14.217413 
1488855143.628555, 1488855143.628555, -1.168457, +0.306396, -0.303467, -47.017315, -58.823540, +14.217413 
1488855143.632500, 1488855143.632500, -1.168457, +0.306396, -0.303467, -53.944805, -60.227348, +11.806524 
1488855143.636267, 1488855143.636267, -1.128540, +0.154297, -0.242310, -53.944805, -60.227348, +11.806524 
1488855143.640016, 1488855143.640016, -1.128540, +0.154297, -0.242310, -53.944805, -60.227348, +7.900274 
1488855143.643809, 1488855143.643809, -1.128540, +0.154297, -0.242310, -57.988384, -62.561943, +10.753668 
