Calculating the offsets...
timestamp_before, timestamp_after, accel_x, accel_y, accel_z, gyro_x, gyro_y, gyro_z
1488855280.265870, 1488855280.265870, -0.980347, +0.211792, -0.418823, -30.414543, -67.590088, +31.378265 
1488855280.278463, 1488855280.278463, -0.980347, +0.211792, -0.418823, -29.529533, -67.590088, +31.378265 
1488855280.282680, 1488855280.282680, -0.980347, +0.211792, -0.418823, -29.529533, -67.590088, +31.378265 
1488855280.286552, 1488855280.286552, -1.134155, +0.299805, -0.483643, -29.407463, -69.711060, +32.476898 
1488855280.290303, 1488855280.290303, -1.134155, +0.299805, -0.483643, -29.407463, -69.711060, +32.476898 
1488855280.294082, 1488855280.294082, -1.134155, +0.299805, -0.483643, -29.407463, -69.711060, +32.476898 
1488855280.297826, 1488855280.297826, -1.134155, +0.299805, -0.483643, -30.780754, -69.115967, +33.422943 
1488855280.301571, 1488855280.301571, -1.134155, +0.299805, -0.483643, -30.780754, -69.115967, +33.422943 
1488855280.305367, 1488855280.305367, -1.286377, +0.343628, -0.322144, -30.780754, -69.115967, +33.422943 
1488855280.309114, 1488855280.309114, -1.286377, +0.343628, -0.322144, -39.676628, -72.015137, +34.033295 
1488855280.312858, 1488855280.312858, -1.286377, +0.343628, -0.322144, -39.676628, -72.015137, +34.033295 
1488855280.316598, 1488855280.316598, -1.286377, +0.343628, -0.322144, -39.676628, -72.015137, +34.033295 
1488855280.320346, 1488855280.320346, -1.286377, +0.343628, -0.322144, -45.856438, -73.449463, +32.736298 
1488855280.324212, 1488855280.324212, -1.286377, +0.188599, -0.132202, -45.856438, -73.449463, +32.736298 
1488855280.327971, 1488855280.327971, -1.290894, +0.188599, -0.132202, -45.856438, -73.449463, +32.736298 
1488855280.331728, 1488855280.331728, -1.290894, +0.188599, -0.132202, -51.578484, -76.730103, +32.339569 
1488855280.335713, 1488855280.335713, -1.290894, +0.188599, -0.132202, -51.578484, -76.730103, +32.339569 
1488855280.339653, 1488855280.339653, -1.290894, +0.188599, -0.132202, -51.578484, -82.726807, +31.591888 
1488855280.343609, 1488855280.343609, -1.290894, +0.063599, -0.130859, -49.320183, -82.726807, +31.591888 
1488855280.347555, 1488855280.347555, -1.305786, +0.062500, -0.130859, -49.320183, -82.726807, +31.591888 
1488855280.351497, 1488855280.351497, -1.305786, +0.062500, -0.130859, -43.781242, -90.203613, +33.941742 
1488855280.355495, 1488855280.355495, -1.305786, +0.062500, -0.130859, -43.781242, -90.203613, +33.941742 
1488855280.359437, 1488855280.359437, -1.305786, +0.062500, -0.130859, -43.781242, -90.203613, +33.941742 
1488855280.363382, 1488855280.363382, -1.305786, +0.031250, -0.210938, -39.417229, -98.122925, +34.414764 
1488855280.367129, 1488855280.367129, -1.408325, +0.049438, -0.210938, -39.417229, -98.122925, +34.414764 
1488855280.370885, 1488855280.370885, -1.408325, +0.049438, -0.210938, -39.417229, -98.122925, +34.414764 
1488855280.374735, 1488855280.374735, -1.408325, +0.049438, -0.210938, -30.155144, -107.812256, +38.214203 
1488855280.378684, 1488855280.378684, -1.408325, +0.049438, -0.210938, -30.155144, -107.812256, +38.214203 
1488855280.382638, 1488855280.382638, -1.408325, +0.049438, -0.617188, -30.155144, -107.812256, +43.081757 
1488855280.386597, 1488855280.386597, -1.585449, +0.280884, -0.604736, -25.058708, -117.837280, +43.081757 
1488855280.390629, 1488855280.390629, -1.585449, +0.280884, -0.604736, -25.058708, -117.837280, +43.081757 
1488855280.394591, 1488855280.394591, -1.585449, +0.280884, -0.604736, -25.287590, -125.817627, +47.567841 
1488855280.398537, 1488855280.398537, -1.585449, +0.280884, -0.604736, -25.287590, -125.817627, +47.567841 
1488855280.402761, 1488855280.402761, -1.585449, +0.280884, -0.655396, -25.287590, -125.817627, +47.567841 
1488855280.406725, 1488855280.406725, -1.787476, +0.160034, -0.655396, -39.646111, -135.476440, +50.161835 
1488855280.410675, 1488855280.410675, -1.787476, +0.160034, -0.655396, -39.646111, -135.476440, +50.161835 
1488855280.414550, 1488855280.414550, -1.787476, +0.160034, -0.655396, -39.646111, -135.476440, +50.161835 
1488855280.418302, 1488855280.418302, -1.787476, +0.160034, -0.655396, -50.968132, -147.439331, +53.335663 
1488855280.422215, 1488855280.422215, -1.787476, +0.160034, -0.655396, -50.968132, -147.439331, +53.335663 
1488855280.426032, 1488855280.426032, -1.885498, -0.167603, -0.726196, -50.968132, -147.439331, +57.241913 
1488855280.429788, 1488855280.429788, -1.885498, -0.167603, -0.726196, -57.315788, -158.654541, +57.577606 
1488855280.433552, 1488855280.433552, -1.885498, -0.167603, -0.726196, -57.315788, -158.654541, +57.577606 
1488855280.437308, 1488855280.437308, -1.885498, -0.167603, -0.726196, -57.315788, -166.467041, +59.103485 
1488855280.441062, 1488855280.441062, -1.885498, -0.167603, -0.726196, -63.281975, -166.100830, +59.103485 
1488855280.444974, 1488855280.444974, -1.880127, -0.112305, -0.769653, -63.281975, -166.100830, +59.103485 
1488855280.448730, 1488855280.448730, -1.880127, -0.112305, -0.769653, -70.606194, -173.531860, +61.941620 
1488855280.452485, 1488855280.452485, -1.880127, -0.112305, -0.769653, -70.606194, -173.531860, +61.941620 
1488855280.456489, 1488855280.456489, -1.880127, -0.112305, -0.769653, -70.606194, -173.531860, +61.941620 
1488855280.460435, 1488855280.460435, -1.880127, -0.112305, -0.769653, -85.864983, -181.634277, +65.130707 
1488855280.464341, 1488855280.464341, -1.795532, -0.316528, -1.152954, -85.864983, -181.634277, +65.130707 
1488855280.468087, 1488855280.468087, -1.795532, -0.316528, -1.152954, -85.864983, -181.634277, +65.130707 
1488855280.471843, 1488855280.471843, -1.795532, -0.316528, -1.152954, -112.186394, -185.174316, +58.401581 
1488855280.475755, 1488855280.475755, -1.795532, -0.316528, -1.152954, -112.186394, -185.174316, +58.401581 
1488855280.479704, 1488855280.479704, -1.795532, -0.316528, -1.152954, -112.186394, -185.174316, +58.401581 
1488855280.483694, 1488855280.483694, -2.239502, -0.491455, -1.296997, -135.303467, -191.415161, +48.437592 
1488855280.487643, 1488855280.487643, -2.239502, -0.491455, -1.296997, -135.303467, -191.415161, +48.437592 
1488855280.491591, 1488855280.491591, -2.239502, -0.491455, -1.296997, -135.303467, -191.415161, +55.670258 
1488855280.495475, 1488855280.495475, -2.239502, -0.491455, -1.296997, -134.265869, -202.172607, +55.670258 
1488855280.499229, 1488855280.499229, -2.239502, -0.491455, -1.296997, -134.265869, -202.172607, +55.670258 
1488855280.503033, 1488855280.503033, -2.408203, -0.453735, -1.266113, -118.640862, -204.125732, +68.975922 
1488855280.506985, 1488855280.506985, -2.408203, -0.453735, -1.266113, -119.113884, -204.125732, +68.975922 
1488855280.511014, 1488855280.511014, -2.408203, -0.453735, -1.266113, -119.113884, -204.125732, +68.975922 
1488855280.514885, 1488855280.514885, -2.408203, -0.453735, -1.266113, -118.732414, -206.033081, +72.546478 
1488855280.518628, 1488855280.518628, -2.408203, -0.453735, -1.266113, -118.732414, -206.033081, +72.546478 
1488855280.522370, 1488855280.522370, -2.408203, +0.201660, -1.447510, -118.732414, -206.033081, +72.546478 
1488855280.526309, 1488855280.526309, -2.010864, +0.201660, -1.447510, -139.270752, -206.796021, +50.680634 
1488855280.530234, 1488855280.530234, -2.010864, +0.201660, -1.447510, -139.270752, -206.796021, +50.680634 
1488855280.534163, 1488855280.534163, -2.010864, +0.201660, -1.447510, -139.270752, -206.796021, +50.680634 
1488855280.538048, 1488855280.538048, -2.010864, +0.201660, -1.447510, -161.563843, -186.562866, +43.798920 
1488855280.542002, 1488855280.542002, -2.010864, +0.451660, -1.333740, -161.563843, -186.562866, +43.798920 
1488855280.545815, 1488855280.545815, -1.727539, +0.457886, -1.333740, -161.563843, -186.562866, +43.798920 
1488855280.549569, 1488855280.549569, -1.727539, +0.457886, -1.333740, -170.200317, -152.306885, +45.477386 
1488855280.553418, 1488855280.553418, -1.727539, +0.457886, -1.333740, -170.200317, -152.306885, +45.477386 
1488855280.557180, 1488855280.557180, -1.727539, +0.457886, -1.333740, -170.200317, -124.963135, +43.402191 
1488855280.560926, 1488855280.560926, -1.727539, +0.457886, -1.333740, -144.992798, -124.108643, +43.402191 
1488855280.564869, 1488855280.564869, -1.306152, +0.918213, -0.726929, -144.992798, -124.108643, +43.402191 
1488855280.568621, 1488855280.568621, -1.306152, +0.918213, -0.726929, -92.761955, -107.201904, +59.240814 
1488855280.572368, 1488855280.572368, -1.306152, +0.918213, -0.726929, -92.761955, -107.201904, +59.240814 
1488855280.576329, 1488855280.576329, -1.306152, +0.918213, -0.726929, -92.761955, -107.201904, +59.240814 
1488855280.580271, 1488855280.580271, -1.306152, +0.918213, -0.726929, -63.053093, -107.796997, +69.372650 
1488855280.584410, 1488855280.584410, -2.601562, +0.417114, +1.941895, -63.053093, -107.796997, +69.372650 
1488855280.588345, 1488855280.588345, -2.601562, +0.417114, +1.941895, -63.053093, -107.796997, +69.372650 
1488855280.592287, 1488855280.592287, -2.601562, +0.417114, +1.941895, -48.374138, -163.308472, +32.141205 
1488855280.596240, 1488855280.596240, -2.601562, +0.417114, +1.941895, -48.374138, -163.308472, +32.141205 
1488855280.600188, 1488855280.600188, -2.601562, +0.417114, +1.941895, -48.374138, -163.308472, -14.733795 
1488855280.604145, 1488855280.604145, +0.039307, +0.117432, -0.030762, +35.457649, -125.558228, -11.804108 
1488855280.608090, 1488855280.608090, +0.039307, +0.117432, -0.030762, +35.457649, -125.558228, -11.804108 
1488855280.612008, 1488855280.612008, +0.039307, +0.117432, -0.030762, +105.266609, -27.779909, -6.768707 
1488855280.615940, 1488855280.615940, +0.039307, +0.117432, -0.030762, +105.266609, -27.779909, -6.768707 
1488855280.619814, 1488855280.619814, +0.039307, +0.117432, -0.030762, +105.266609, -27.779909, -6.768707 
1488855280.623941, 1488855280.623941, -0.056396, +0.306030, -0.102417, +128.582031, +19.308714, +8.825775 
1488855280.627893, 1488855280.627893, -0.056396, +0.306030, -0.102417, +128.582031, +19.308714, +8.825775 
1488855280.631837, 1488855280.631837, -0.056396, +0.306030, -0.102417, +128.582031, +19.308714, +8.825775 
1488855280.635796, 1488855280.635796, -0.056396, +0.306030, -0.102417, +152.416260, +43.371826, +0.174042 
1488855280.639733, 1488855280.639733, -0.056396, +0.306030, -0.102417, +152.416260, +43.371826, +0.174042 
1488855280.643693, 1488855280.643693, +0.346313, +0.123535, -0.531982, +152.416260, +43.371826, -15.450958 
1488855280.647849, 1488855280.647849, +0.346313, +0.123535, -0.531982, +173.137695, +75.628906, -18.762115 
1488855280.651799, 1488855280.651799, +0.346313, +0.123535, -0.531982, +173.137695, +75.628906, -18.762115 
1488855280.655621, 1488855280.655621, +0.346313, +0.123535, -0.531982, +163.890869, +105.795532, -37.866119 
1488855280.659381, 1488855280.659381, +0.346313, +0.123535, -0.531982, +163.890869, +105.795532, -37.866119 
1488855280.663129, 1488855280.663129, +0.286133, +0.225098, -0.586548, +163.890869, +105.795532, -37.866119 
1488855280.666881, 1488855280.666881, +0.286133, +0.225098, -0.586548, +122.631111, +134.222656, -57.595734 
1488855280.670634, 1488855280.670634, +0.286133, +0.225098, -0.586548, +122.631111, +134.222656, -57.595734 
1488855280.674567, 1488855280.674567, +0.286133, +0.225098, -0.586548, +122.631111, +134.222656, -57.595734 
1488855280.678324, 1488855280.678324, +0.286133, +0.225098, -0.586548, +62.847176, +155.340820, -75.829987 
1488855280.682079, 1488855280.682079, -0.112793, +0.100464, -0.396484, +62.847176, +155.340820, -75.829987 
1488855280.686093, 1488855280.686093, -0.112793, +0.100464, -0.396484, +62.847176, +155.340820, -75.829987 
1488855280.690044, 1488855280.690044, -0.112793, +0.100464, -0.396484, +9.304085, +170.233398, -91.577057 
1488855280.693997, 1488855280.693997, -0.112793, +0.100464, -0.396484, +9.304085, +170.233398, -91.577057 
1488855280.697943, 1488855280.697943, -0.112793, +0.100464, -0.396484, +9.304085, +170.233398, -91.577057 
1488855280.701884, 1488855280.701884, -0.237427, -0.161499, -0.245605, -13.462029, +183.478027, -102.029327 
1488855280.705840, 1488855280.705840, -0.237427, -0.161499, -0.245605, -13.462029, +183.478027, -102.029327 
1488855280.709786, 1488855280.709786, -0.237427, -0.161499, -0.245605, -13.462029, +198.416382, -107.507233 
1488855280.713834, 1488855280.713834, -0.237427, -0.161499, -0.245605, -4.245720, +198.416382, -107.507233 
1488855280.717576, 1488855280.717576, -0.237427, -0.161499, -0.245605, -4.245720, +198.416382, -107.507233 
1488855280.721326, 1488855280.721326, -0.344604, -0.402954, -0.107788, +20.427742, +211.722046, -113.564972 
1488855280.725251, 1488855280.725251, -0.344604, -0.402954, -0.107788, +20.427742, +211.722046, -113.564972 
1488855280.729201, 1488855280.729201, -0.344604, -0.402954, -0.107788, +20.427742, +211.722046, -113.564972 
1488855280.733158, 1488855280.733158, -0.344604, -0.402954, -0.107788, +44.582405, +224.981934, -120.843414 
1488855280.737103, 1488855280.737103, -0.344604, -0.402954, -0.107788, +44.582405, +224.981934, -120.843414 
1488855280.741274, 1488855280.741274, -0.479736, -0.311035, -0.182739, +44.582405, +224.981934, -120.843414 
1488855280.745368, 1488855280.745368, -0.479736, -0.311035, -0.182739, +62.450447, +240.606934, -126.367096 
1488855280.749320, 1488855280.749320, -0.479736, -0.311035, -0.182739, +62.450447, +240.606934, -126.367096 
1488855280.753282, 1488855280.753282, -0.479736, -0.311035, -0.182739, +62.450447, +258.322388, -130.746368 
1488855280.757229, 1488855280.757229, -0.479736, -0.311035, -0.182739, +74.977913, +258.322388, -130.746368 
1488855280.761171, 1488855280.761171, -0.541504, -0.179077, -0.468872, +74.977913, +258.322388, -130.746368 
1488855280.765028, 1488855280.765028, -0.541504, -0.179077, -0.468872, +80.059090, +278.784424, -135.507111 
1488855280.768786, 1488855280.768786, -0.541504, -0.179077, -0.468872, +80.059090, +278.784424, -135.507111 
1488855280.772534, 1488855280.772534, -0.541504, -0.179077, -0.468872, +80.059090, +278.784424, -135.507111 
1488855280.776344, 1488855280.776344, -0.541504, -0.179077, -0.468872, +77.495613, +297.384888, -139.733795 
1488855280.780096, 1488855280.780096, -0.541504, +0.039673, -0.681274, +77.495613, +297.384888, -139.733795 
1488855280.783888, 1488855280.783888, -0.789062, +0.037231, -0.681274, +77.495613, +297.384888, -139.733795 
1488855280.787644, 1488855280.787644, -0.789062, +0.037231, -0.681274, +70.629158, +315.390259, -143.426422 
1488855280.791396, 1488855280.791396, -0.789062, +0.037231, -0.681274, +70.629158, +315.390259, -143.426422 
1488855280.795317, 1488855280.795317, -0.789062, +0.037231, -0.681274, +70.629158, +315.390259, -143.426422 
1488855280.799071, 1488855280.799071, -0.789062, +0.037231, -0.681274, +64.022102, +332.068115, -147.134308 
1488855280.802829, 1488855280.802829, -1.147949, +0.125000, -0.658691, +64.022102, +332.068115, -147.134308 
1488855280.806672, 1488855280.806672, -1.147949, +0.125000, -0.658691, +64.022102, +332.068115, -147.134308 
1488855280.810426, 1488855280.810426, -1.147949, +0.125000, -0.658691, +58.727303, +349.234253, -152.566437 
1488855280.814292, 1488855280.814292, -1.147949, +0.125000, -0.658691, +58.727303, +349.234253, -152.566437 
1488855280.818236, 1488855280.818236, -1.147949, +0.125000, -0.658691, +58.727303, +349.234253, -155.343536 
1488855280.822179, 1488855280.822179, -1.739746, +0.075073, -0.635864, +53.356209, +364.935547, -155.343536 
1488855280.826133, 1488855280.826133, -1.739746, +0.075073, -0.635864, +53.356209, +364.935547, -155.343536 
1488855280.830079, 1488855280.830079, -1.739746, +0.075073, -0.635864, +54.744759, +375.601440, -153.329376 
1488855280.834067, 1488855280.834067, -1.739746, +0.075073, -0.635864, +54.744759, +375.601440, -153.329376 
1488855280.838010, 1488855280.838010, -1.739746, +0.075073, -0.635864, +54.744759, +375.601440, -153.329376 
1488855280.841942, 1488855280.841942, -2.422485, -0.038696, -0.399170, +67.195930, +380.163818, -146.707062 
1488855280.845764, 1488855280.845764, -2.422485, -0.038696, -0.399170, +67.195930, +380.163818, -146.707062 
1488855280.849517, 1488855280.849517, -2.422485, -0.038696, -0.399170, +67.195930, +380.163818, -146.707062 
1488855280.853312, 1488855280.853312, -2.422485, -0.038696, -0.399170, +92.983284, +378.683716, -137.048248 
1488855280.857253, 1488855280.857253, -2.422485, -0.038696, -0.399170, +92.983284, +378.683716, -137.048248 
1488855280.861459, 1488855280.861459, -3.219360, +0.089600, -0.229370, +92.983284, +378.683716, -127.816681 
1488855280.865712, 1488855280.865712, -3.219360, +0.089600, -0.229370, +129.451782, +368.796021, -127.816681 
1488855280.869663, 1488855280.869663, -3.219360, +0.089600, -0.229370, +129.451782, +368.796021, -127.816681 
1488855280.873613, 1488855280.873613, -3.219360, +0.089600, -0.229370, +164.485962, +347.372681, -125.314240 
1488855280.877554, 1488855280.877554, -3.219360, +0.089600, -0.229370, +164.485962, +347.372681, -125.314240 
1488855280.881495, 1488855280.881495, -3.807983, +0.453369, +0.075317, +164.485962, +347.372681, -125.314240 
1488855280.885491, 1488855280.885491, -3.807983, +0.453369, +0.075317, +186.290771, +312.445312, -123.559479 
1488855280.889440, 1488855280.889440, -3.807983, +0.453369, +0.075317, +186.290771, +312.445312, -123.559479 
1488855280.893373, 1488855280.893373, -3.807983, +0.453369, +0.075317, +186.290771, +312.445312, -123.559479 
1488855280.897123, 1488855280.897123, -3.807983, +0.453369, +0.075317, +198.299438, +274.389893, -111.245636 
1488855280.900871, 1488855280.900871, -3.099487, +1.863770, +0.594482, +198.299438, +274.389893, -111.245636 
1488855280.904660, 1488855280.904660, -3.099487, +1.863770, +0.594482, +198.299438, +274.389893, -111.245636 
1488855280.908401, 1488855280.908401, -3.099487, +1.863770, +0.594482, +214.824707, +240.500122, -73.907379 
1488855280.912159, 1488855280.912159, -3.099487, +1.863770, +0.594482, +214.824707, +240.500122, -73.907379 
1488855280.916080, 1488855280.916080, -3.099487, +1.863770, +0.594482, +214.824707, +240.500122, -23.126129 
1488855280.919834, 1488855280.919834, -3.483643, +3.395752, +2.669922, +214.946777, +195.532471, -25.491241 
1488855280.923619, 1488855280.923619, -3.483643, +3.395752, +2.669922, +214.946777, +195.532471, -25.491241 
1488855280.927571, 1488855280.927571, -3.483643, +3.395752, +2.669922, +214.946777, +90.124756, +7.864472 
1488855280.931511, 1488855280.931511, -3.483643, +3.395752, +2.669922, +148.555786, +90.124756, +7.864472 
1488855280.935496, 1488855280.935496, -3.483643, +3.395752, +2.669922, +148.555786, +90.124756, +7.864472 
1488855280.939442, 1488855280.939442, -2.389893, +2.513794, +2.231934, +29.430428, -23.965212, +34.521576 
1488855280.943378, 1488855280.943378, -2.394043, +2.513794, +2.231934, +29.430428, -23.965212, +34.521576 
1488855280.947126, 1488855280.947126, -2.394043, +2.513794, +2.231934, +29.430428, -23.965212, +34.521576 
1488855280.950875, 1488855280.950875, -2.394043, +2.513794, +2.231934, -20.725212, -83.291382, +73.538300 
1488855280.954730, 1488855280.954730, -2.394043, +2.513794, +2.231934, -20.725212, -83.291382, +73.538300 
1488855280.958678, 1488855280.958678, -2.394043, +1.951294, +1.132812, -20.725212, -83.291382, +73.538300 
1488855280.962619, 1488855280.962619, -2.005981, +1.939209, +1.132812, -44.177971, -133.096069, +100.836273 
1488855280.966569, 1488855280.966569, -2.005981, +1.939209, +1.132812, -44.177971, -133.096069, +100.836273 
1488855280.970514, 1488855280.970514, -2.005981, +1.939209, +1.132812, -44.177971, -133.096069, +96.075531 
1488855280.974505, 1488855280.974505, -2.005981, +1.939209, +1.132812, -57.727776, -171.273560, +96.075531 
1488855280.978449, 1488855280.978449, -2.005981, -2.967041, -3.629150, -57.727776, -171.273560, +96.075531 
1488855280.982468, 1488855280.982468, +0.139771, -2.965820, -3.629150, -81.333122, -117.913574, +17.477509 
1488855280.986733, 1488855280.986733, +0.139771, -2.965820, -3.629150, -81.333122, -117.913574, +17.477509 
1488855280.990677, 1488855280.990677, +0.139771, -2.965820, -3.629150, -81.333122, -117.913574, +17.477509 
1488855280.994600, 1488855280.994600, +0.139771, -2.965820, -3.629150, -90.305290, -46.258301, -40.841583 
1488855280.998347, 1488855280.998347, +0.139771, -0.809570, +1.180298, -90.305290, -46.258301, -40.841583 
1488855281.002099, 1488855281.002099, -3.139648, -0.789917, +1.180298, -90.305290, -46.258301, -40.841583 
1488855281.006007, 1488855281.006007, -3.139648, -0.789917, +1.180298, -73.200188, -123.772949, -12.155060 
1488855281.010059, 1488855281.010059, -3.139648, -0.789917, +1.180298, -73.200188, -123.772949, -12.155060 
1488855281.013973, 1488855281.013973, -3.139648, -0.789917, +1.180298, -73.200188, -123.772949, +42.532440 
1488855281.017717, 1488855281.017717, -3.139648, -0.789917, +1.180298, -71.430168, -254.678101, +43.234344 
1488855281.021470, 1488855281.021470, -2.447021, +0.890015, -0.304932, -71.430168, -254.678101, +43.234344 
1488855281.025233, 1488855281.025233, -2.447021, +0.890015, -0.304932, -71.430168, -254.678101, +106.985565 
1488855281.028986, 1488855281.028986, -2.447021, +0.890015, -0.304932, -78.266106, -228.280396, +106.985565 
1488855281.032739, 1488855281.032739, -2.447021, +0.890015, -0.304932, -78.266106, -228.280396, +106.985565 
1488855281.036667, 1488855281.036667, -2.447021, +0.890015, -0.304932, -78.266106, -133.736938, +130.835052 
1488855281.040419, 1488855281.040419, -1.824585, +0.090210, -0.045288, -78.464470, -133.736938, +130.835052 
1488855281.044335, 1488855281.044335, -1.824585, +0.090210, -0.045288, -78.464470, -133.736938, +130.835052 
1488855281.048094, 1488855281.048094, -1.824585, +0.090210, -0.045288, -54.065666, -116.952271, +168.844696 
1488855281.051848, 1488855281.051848, -1.824585, +0.090210, -0.045288, -54.065666, -116.952271, +168.844696 
1488855281.055749, 1488855281.055749, -1.824585, +0.090210, -0.045288, -54.065666, -116.952271, +168.844696 
1488855281.059706, 1488855281.059706, -1.472290, +0.153809, +0.050049, +44.536629, -117.364258, +209.143158 
1488855281.063673, 1488855281.063673, -1.472290, +0.153809, +0.050049, +44.536629, -117.364258, +209.143158 
1488855281.067618, 1488855281.067618, -1.472290, +0.153809, +0.050049, +44.536629, -117.364258, +209.143158 
1488855281.071569, 1488855281.071569, -1.472290, +0.153809, +0.050049, +125.774422, -102.990479, +181.128021 
1488855281.075530, 1488855281.075530, -1.472290, +0.153809, +0.050049, +125.774422, -102.990479, +181.128021 
1488855281.079482, 1488855281.079482, -1.380249, +0.839966, +0.077881, +125.774422, -102.990479, +123.968597 
1488855281.083493, 1488855281.083493, -1.380249, +0.839966, +0.077881, +146.953613, -135.964722, +123.968597 
1488855281.087442, 1488855281.087442, -1.380249, +0.839966, +0.077881, +146.953613, -135.964722, +123.968597 
1488855281.091385, 1488855281.091385, -1.380249, +0.839966, +0.077881, +111.278572, -156.014771, +96.380707 
1488855281.095240, 1488855281.095240, -1.380249, +0.839966, +0.077881, +111.278572, -156.014771, +96.380707 
1488855281.099016, 1488855281.099016, -0.739502, +1.179810, -0.131226, +111.278572, -156.014771, +96.380707 
1488855281.102915, 1488855281.102915, -0.739502, +1.179810, -0.131226, +51.372566, -138.680786, +64.062592 
1488855281.107079, 1488855281.107079, -0.739502, +1.179810, -0.131226, +51.372566, -138.680786, +64.062592 
1488855281.111032, 1488855281.111032, -0.739502, +1.179810, -0.131226, +51.372566, -138.680786, +64.062592 
1488855281.114994, 1488855281.114994, -0.739502, +1.179810, -0.131226, -11.341057, -126.580566, +37.756439 
1488855281.118945, 1488855281.118945, -0.874146, -0.114624, -0.303345, -11.341057, -126.580566, +37.756439 
1488855281.122891, 1488855281.122891, -0.874146, -0.114624, -0.303345, -11.341057, -126.580566, +29.943939 
1488855281.126843, 1488855281.126843, -0.874146, -0.114624, -0.303345, -32.123528, -104.729980, +31.347748 
1488855281.130793, 1488855281.130793, -0.874146, -0.114624, -0.303345, -32.123528, -104.729980, +31.347748 
1488855281.134674, 1488855281.134674, -0.874146, -0.114624, -0.303345, -12.592278, -98.275513, +43.219086 
1488855281.138431, 1488855281.138431, -1.043457, -0.040649, -0.343750, -11.066399, -98.275513, +43.219086 
1488855281.142186, 1488855281.142186, -1.043457, -0.040649, -0.343750, -11.066399, -98.275513, +43.219086 
1488855281.145991, 1488855281.145991, -1.043457, -0.040649, -0.343750, +8.754768, -76.211304, +39.282318 
1488855281.149744, 1488855281.149744, -1.043457, -0.040649, -0.343750, +8.754768, -76.211304, +39.282318 
1488855281.153701, 1488855281.153701, -1.043457, -0.040649, -0.343750, +8.754768, -76.211304, +39.282318 
1488855281.157460, 1488855281.157460, -1.043457, +0.266968, -0.256714, +6.816902, -59.380859, +40.014740 
1488855281.161205, 1488855281.161205, -1.226562, +0.266968, -0.256714, +6.816902, -59.380859, +40.014740 
1488855281.165210, 1488855281.165210, -1.226562, +0.266968, -0.256714, +6.816902, -59.380859, +40.014740 
1488855281.169156, 1488855281.169156, -1.226562, +0.266968, -0.256714, +1.995125, -55.856079, +31.790253 
1488855281.173109, 1488855281.173109, -1.226562, +0.266968, -0.256714, +1.995125, -55.856079, +31.790253 
1488855281.177050, 1488855281.177050, -1.226562, +0.079468, -0.180420, +1.995125, -55.856079, +31.790253 
1488855281.181002, 1488855281.181002, -1.174927, +0.068970, -0.180420, -5.466423, -60.754150, +26.312347 
1488855281.184867, 1488855281.184867, -1.174927, +0.068970, -0.180420, -5.466423, -60.754150, +26.312347 
1488855281.188618, 1488855281.188618, -1.174927, +0.068970, -0.180420, -5.466423, -60.754150, +27.273651 
1488855281.192375, 1488855281.192375, -1.174927, +0.068970, -0.180420, +2.376595, -50.729126, +27.273651 
1488855281.196166, 1488855281.196166, -1.174927, +0.068970, -0.180420, +2.376595, -50.729126, +27.273651 
1488855281.199921, 1488855281.199921, -1.149536, +0.396851, -0.463135, -1.529655, -40.749878, +27.990814 
1488855281.203801, 1488855281.203801, -1.149536, +0.396851, -0.463135, -1.239738, -40.749878, +27.990814 
1488855281.207749, 1488855281.207749, -1.149536, +0.396851, -0.463135, -1.239738, -40.749878, +27.990814 
1488855281.211688, 1488855281.211688, -1.149536, +0.396851, -0.463135, -11.798820, -37.515015, +23.916718 
1488855281.215680, 1488855281.215680, -1.149536, +0.396851, -0.463135, -11.798820, -37.515015, +23.916718 
1488855281.219690, 1488855281.219690, -0.880249, +0.414673, -0.286865, -11.798820, -37.515015, +23.916718 
1488855281.224084, 1488855281.224084, -0.880249, +0.414673, -0.286865, -12.897453, -35.317749, +19.430634 
1488855281.228039, 1488855281.228039, -0.880249, +0.414673, -0.286865, -12.897453, -35.317749, +19.430634 
1488855281.231982, 1488855281.231982, -0.880249, +0.414673, -0.286865, -12.897453, -35.317749, +16.806122 
1488855281.235798, 1488855281.235798, -0.880249, +0.414673, -0.286865, -10.883293, -34.066528, +16.806122 
1488855281.239550, 1488855281.239550, -1.114990, +0.160889, -0.224365, -10.883293, -34.066528, +16.806122 
1488855281.243424, 1488855281.243424, -1.114990, +0.160889, -0.224365, -10.883293, -29.427858, +20.956512 
1488855281.247383, 1488855281.247383, -1.114990, +0.160889, -0.224365, -10.745964, -29.427858, +20.956512 
1488855281.251323, 1488855281.251323, -1.114990, +0.160889, -0.224365, -10.745964, -29.427858, +20.956512 
1488855281.255202, 1488855281.255202, -1.114990, +0.160889, -0.224365, -17.795525, -28.924318, +20.819183 
1488855281.258957, 1488855281.258957, -1.357178, +0.270020, -0.293457, -17.795525, -28.924318, +20.819183 
1488855281.262706, 1488855281.262706, -1.357178, +0.270020, -0.293457, -17.795525, -28.924318, +20.819183 
1488855281.266458, 1488855281.266458, -1.357178, +0.270020, -0.293457, -32.321892, -37.057251, +19.171234 
1488855281.270209, 1488855281.270209, -1.357178, +0.270020, -0.293457, -32.321892, -37.057251, +19.171234 
1488855281.274013, 1488855281.274013, -1.357178, +0.270020, -0.293457, -32.321892, -37.057251, +19.171234 
1488855281.277766, 1488855281.277766, -1.036499, +0.124023, -0.451904, -45.825920, -45.129150, +19.369598 
1488855281.281520, 1488855281.281520, -1.036499, +0.124023, -0.451904, -45.825920, -45.129150, +19.369598 
1488855281.286285, 1488855281.286285, -1.036499, +0.124023, -0.451904, -45.825920, -52.209229, +23.977753 
1488855281.290873, 1488855281.290873, -1.036499, +0.124023, -0.451904, -51.059685, -52.209229, +23.977753 
1488855281.294818, 1488855281.294818, -1.036499, +0.124023, -0.451904, -51.059685, -52.209229, +23.977753 
1488855281.298769, 1488855281.298769, -1.011230, -0.069946, -0.352783, -52.738152, -62.707275, +28.402802 
1488855281.302713, 1488855281.302713, -1.011230, -0.069946, -0.352783, -52.738152, -62.707275, +28.402802 
1488855281.306862, 1488855281.306862, -1.011230, -0.069946, -0.352783, -52.738152, -62.707275, +28.402802 
1488855281.310810, 1488855281.310810, -1.011230, -0.069946, -0.352783, -35.785637, -68.673462, +32.766815 
1488855281.314763, 1488855281.314763, -1.011230, -0.069946, -0.352783, -35.785637, -68.673462, +32.766815 
1488855281.318712, 1488855281.318712, -1.173706, +0.294434, -0.429321, -35.785637, -68.673462, +32.766815 
1488855281.322649, 1488855281.322649, -1.173706, +0.294434, -0.429321, -26.920280, -70.992798, +39.785858 
1488855281.326611, 1488855281.326611, -1.173706, +0.294434, -0.429321, -26.920280, -70.992798, +39.785858 
1488855281.330557, 1488855281.330557, -1.173706, +0.294434, -0.429321, -30.826530, -74.334473, +40.243622 
1488855281.334454, 1488855281.334454, -1.173706, +0.294434, -0.429321, -31.818352, -74.334473, +40.243622 
1488855281.338207, 1488855281.338207, -1.353516, +0.371338, -0.158203, -31.818352, -74.334473, +40.243622 
1488855281.342125, 1488855281.342125, -1.353516, +0.371338, -0.158203, -41.934929, -78.515381, +41.311737 
1488855281.346349, 1488855281.346349, -1.353516, +0.371338, -0.158203, -41.934929, -78.515381, +41.311737 
1488855281.350296, 1488855281.350296, -1.353516, +0.371338, -0.158203, -41.934929, -78.515381, +41.311737 
1488855281.354290, 1488855281.354290, -1.353516, +0.371338, -0.158203, -47.534904, -79.858154, +38.549896 
1488855281.358238, 1488855281.358238, -1.348511, +0.217529, -0.073364, -47.534904, -79.858154, +38.549896 
1488855281.362182, 1488855281.362182, -1.348511, +0.217529, -0.073364, -47.534904, -79.858154, +38.549896 
1488855281.366145, 1488855281.366145, -1.348511, +0.217529, -0.073364, -50.464592, -83.367676, +37.008759 
1488855281.370087, 1488855281.370087, -1.348511, +0.217529, -0.073364, -50.464592, -83.367676, +37.008759 
1488855281.374036, 1488855281.374036, -1.348511, +0.217529, -0.073364, -50.464592, -89.639038, +34.842010 
1488855281.377785, 1488855281.377785, -1.284546, -0.010620, -0.091309, -49.823723, -89.639038, +34.842010 
1488855281.381539, 1488855281.381539, -1.284546, -0.010620, -0.091309, -49.823723, -89.639038, +34.842010 
1488855281.385296, 1488855281.385296, -1.284546, -0.010620, -0.091309, -42.758904, -96.230835, +35.467621 
1488855281.389052, 1488855281.389052, -1.284546, -0.010620, -0.091309, -42.758904, -96.230835, +35.467621 
1488855281.392810, 1488855281.392810, -1.284546, -0.010620, -0.091309, -42.758904, -96.230835, +35.467621 
1488855281.396692, 1488855281.396692, -1.415283, +0.057739, -0.140991, -28.858147, -103.265137, +38.580414 
1488855281.400444, 1488855281.400444, -1.415283, +0.057739, -0.140991, -28.858147, -103.265137, +38.580414 
1488855281.404389, 1488855281.404389, -1.415283, +0.057739, -0.140991, -28.858147, -103.265137, +38.580414 
1488855281.408318, 1488855281.408318, -1.415283, +0.057739, -0.140991, -18.833122, -113.519043, +43.463226 
1488855281.412234, 1488855281.412234, -1.415283, +0.057739, -0.140991, -18.833122, -113.519043, +43.463226 
1488855281.416166, 1488855281.416166, -1.602417, +0.239014, -0.477539, -18.833122, -113.519043, +43.463226 
1488855281.420085, 1488855281.420085, -1.602417, +0.239014, -0.477539, -15.689812, -124.093384, +48.834320 
1488855281.424010, 1488855281.424010, -1.602417, +0.239014, -0.477539, -15.689812, -124.093384, +48.834320 
1488855281.427904, 1488855281.427904, -1.602417, +0.239014, -0.477539, -15.689812, -124.093384, +55.853363 
1488855281.431789, 1488855281.431789, -1.602417, +0.239014, -0.477539, -20.481071, -133.111328, +55.853363 
1488855281.435621, 1488855281.435621, -1.789917, +0.270264, -0.718262, -20.481071, -133.111328, +55.853363 
1488855281.439369, 1488855281.439369, -1.805908, +0.270264, -0.718262, -20.481071, -140.984863, +60.949799 
1488855281.443127, 1488855281.443127, -1.805908, +0.270264, -0.718262, -32.413445, -140.984863, +60.949799 
1488855281.447071, 1488855281.447071, -1.805908, +0.270264, -0.718262, -32.413445, -140.984863, +60.949799 
1488855281.451019, 1488855281.451019, -1.805908, +0.270264, -0.718262, -48.191032, -152.840942, +64.535614 
1488855281.455093, 1488855281.455093, -1.805908, -0.125122, -0.808350, -48.191032, -152.840942, +64.535614 
1488855281.459122, 1488855281.459122, -1.904541, -0.125122, -0.808350, -48.191032, -152.840942, +64.535614 
1488855281.463538, 1488855281.463538, -1.904541, -0.125122, -0.808350, -55.698357, -164.803833, +66.915985 
1488855281.467495, 1488855281.467495, -1.904541, -0.125122, -0.808350, -55.698357, -164.803833, +66.915985 
1488855281.471453, 1488855281.471453, -1.904541, -0.125122, -0.808350, -55.698357, -164.803833, +70.700165 
1488855281.475299, 1488855281.475299, -1.873291, +0.011108, -0.980835, -62.549553, -173.837036, +70.700165 
1488855281.479046, 1488855281.479046, -1.873047, +0.011108, -0.980835, -62.549553, -173.837036, +70.700165 
1488855281.482800, 1488855281.482800, -1.873047, +0.011108, -0.980835, -62.549553, -181.649536, +74.331757 
1488855281.486753, 1488855281.486753, -1.873047, +0.011108, -0.980835, -79.044304, -182.381958, +74.331757 
1488855281.490704, 1488855281.490704, -1.873047, +0.011108, -0.980835, -79.044304, -182.381958, +74.331757 
1488855281.494632, 1488855281.494632, -1.873047, -0.332642, -1.577026, -108.203850, -186.166138, +69.906708 
1488855281.498384, 1488855281.498384, -1.731201, -0.341187, -1.577026, -108.203850, -186.166138, +69.906708 
1488855281.502131, 1488855281.502131, -1.731201, -0.341187, -1.577026, -108.203850, -186.166138, +69.906708 
1488855281.505928, 1488855281.505928, -1.731201, -0.341187, -1.577026, -133.914917, -188.470215, +60.354706 
1488855281.509681, 1488855281.509681, -1.731201, -0.341187, -1.577026, -133.914917, -188.470215, +60.354706 
1488855281.513587, 1488855281.513587, -1.731201, -0.341187, -1.577026, -133.914917, -188.470215, +60.354706 
1488855281.517340, 1488855281.517340, -2.401611, -0.247070, -1.523438, -149.784058, -201.180786, +65.313812 
1488855281.521095, 1488855281.521095, -2.401611, -0.247070, -1.523438, -149.784058, -201.180786, +65.313812 
1488855281.524986, 1488855281.524986, -2.401611, -0.247070, -1.523438, -149.784058, -201.180786, +65.313812 
1488855281.528739, 1488855281.528739, -2.401611, -0.247070, -1.523438, -147.327393, -202.187866, +74.728485 
1488855281.532492, 1488855281.532492, -2.401611, -0.247070, -1.523438, -147.327393, -202.187866, +74.728485 
1488855281.536422, 1488855281.536422, -2.473511, -0.194214, -1.065430, -147.327393, -202.187866, +74.728485 
1488855281.540370, 1488855281.540370, -2.473511, -0.194214, -1.065430, -152.851074, -200.417847, +74.133392 
1488855281.544334, 1488855281.544334, -2.473511, -0.194214, -1.065430, -152.851074, -200.417847, +74.133392 
1488855281.548266, 1488855281.548266, -2.473511, -0.194214, -1.065430, -152.851074, -207.925171, +49.429413 
1488855281.552240, 1488855281.552240, -2.473511, -0.194214, -1.065430, -187.198608, -207.925171, +49.429413 
1488855281.556195, 1488855281.556195, -1.975830, +0.070312, -1.371704, -187.198608, -207.925171, +49.429413 
1488855281.560143, 1488855281.560143, -1.975830, +0.070312, -1.371704, -212.970703, -198.556274, +24.374481 
1488855281.564101, 1488855281.564101, -1.975830, +0.070312, -1.371704, -212.970703, -198.556274, +24.374481 
1488855281.568046, 1488855281.568046, -1.975830, +0.070312, -1.371704, -212.970703, -198.556274, +24.374481 
1488855281.572002, 1488855281.572002, -1.975830, +0.070312, -1.371704, -214.343994, -170.968384, +22.497650 
1488855281.575812, 1488855281.575812, -1.618652, -0.038330, -0.874023, -214.343994, -170.968384, +22.497650 
1488855281.579661, 1488855281.579661, -1.618652, -0.038330, -0.874023, -214.343994, -170.968384, +22.497650 
1488855281.583890, 1488855281.583890, -1.618652, -0.038330, -0.874023, -169.651001, -142.037720, +24.572845 
1488855281.587840, 1488855281.587840, -1.618652, -0.038330, -0.874023, -169.651001, -142.037720, +24.572845 
1488855281.591790, 1488855281.591790, -1.618652, -0.038330, -0.874023, -169.651001, -128.121704, +39.022919 
1488855281.595748, 1488855281.595748, -1.524780, +0.050171, -0.494385, -84.964714, -128.121704, +39.022919 
1488855281.599697, 1488855281.599697, -1.524780, +0.050171, -0.494385, -84.964714, -128.121704, +39.022919 
1488855281.603751, 1488855281.603751, -1.524780, +0.050171, -0.494385, -8.487663, -128.884644, +38.855072 
1488855281.607700, 1488855281.607700, -1.524780, +0.050171, -0.494385, -8.487663, -128.884644, +38.855072 
1488855281.611639, 1488855281.611639, -1.524780, +0.050171, -0.494385, -8.487663, -128.884644, +38.855072 
1488855281.615477, 1488855281.615477, -0.779907, -0.002319, +1.480835, +35.213509, -182.961792, +4.415986 
1488855281.619225, 1488855281.619225, -0.779907, -0.002319, +1.480835, +35.213509, -182.961792, +4.415986 
1488855281.623008, 1488855281.623008, -0.779907, -0.002319, +1.480835, +35.213509, -182.961792, +4.415986 
1488855281.627110, 1488855281.627110, -0.779907, -0.002319, +1.480835, +124.980965, -151.376099, -11.437897 
1488855281.630853, 1488855281.630853, -0.779907, -0.002319, +1.480835, +124.980965, -151.376099, -11.437897 
1488855281.634680, 1488855281.634680, -0.086548, +0.681396, -0.219482, +124.980965, -151.376099, +8.093353 
1488855281.638422, 1488855281.638422, -0.086548, +0.681396, -0.219482, +180.461914, -33.227295, +6.842133 
1488855281.642163, 1488855281.642163, -0.086548, +0.681396, -0.219482, +180.461914, -33.227295, +6.842133 
1488855281.645952, 1488855281.645952, -0.086548, +0.681396, -0.219482, +180.461914, -33.227295, +32.034393 
1488855281.649695, 1488855281.649695, -0.086548, +0.681396, -0.219482, +179.103882, +30.295042, +32.034393 
1488855281.653488, 1488855281.653488, -0.086548, +0.368896, -0.296143, +179.103882, +30.295042, +32.034393 
1488855281.657233, 1488855281.657233, +0.120117, +0.359253, -0.296143, +179.103882, +67.877441, +27.929779 
1488855281.660975, 1488855281.660975, +0.120117, +0.359253, -0.296143, +178.936035, +67.877441, +27.929779 
1488855281.664727, 1488855281.664727, +0.120117, +0.359253, -0.296143, +178.936035, +67.877441, +27.929779 
1488855281.668474, 1488855281.668474, +0.120117, +0.359253, -0.296143, +177.211792, +103.766113, +6.353852 
1488855281.672217, 1488855281.672217, +0.120117, +0.359253, -0.296143, +177.211792, +103.766113, +6.353852 
1488855281.676114, 1488855281.676114, +0.290405, +0.336304, -0.405396, +177.211792, +103.766113, +6.353852 
1488855281.679862, 1488855281.679862, +0.290405, +0.336304, -0.405396, +163.143188, +130.087524, -15.191559 
1488855281.683803, 1488855281.683803, +0.290405, +0.336304, -0.405396, +163.143188, +130.087524, -15.191559 
1488855281.687751, 1488855281.687751, +0.290405, +0.336304, -0.405396, +163.143188, +130.087524, -15.191559 
1488855281.691692, 1488855281.691692, +0.290405, +0.336304, -0.405396, +129.421265, +150.885254, -36.248688 
1488855281.695692, 1488855281.695692, +0.151123, +0.334961, -0.517822, +129.421265, +150.885254, -36.248688 
1488855281.699643, 1488855281.699643, +0.151123, +0.334961, -0.517822, +129.421265, +150.885254, -36.248688 
1488855281.703591, 1488855281.703591, +0.151123, +0.334961, -0.517822, +73.055305, +172.995239, -56.542877 
1488855281.707539, 1488855281.707539, +0.151123, +0.334961, -0.517822, +73.055305, +172.995239, -56.542877 
1488855281.711486, 1488855281.711486, +0.151123, +0.334961, -0.517822, +73.055305, +192.526489, -80.178741 
1488855281.715438, 1488855281.715438, -0.191895, +0.035767, -0.408447, +14.781990, +193.426758, -80.178741 
1488855281.719382, 1488855281.719382, -0.191895, +0.035767, -0.408447, +14.781990, +193.426758, -80.178741 
1488855281.723334, 1488855281.723334, -0.191895, +0.035767, -0.408447, -25.409660, +207.586914, -99.862579 
1488855281.727081, 1488855281.727081, -0.191895, +0.035767, -0.408447, -25.409660, +207.586914, -99.862579 
1488855281.730829, 1488855281.730829, -0.191895, +0.035767, -0.408447, -25.409660, +207.586914, -99.862579 
1488855281.734609, 1488855281.734609, -0.303955, -0.614136, -0.203125, -29.804192, +220.114380, -111.032013 
1488855281.738353, 1488855281.738353, -0.303955, -0.614136, -0.203125, -29.804192, +220.114380, -111.032013 
1488855281.742309, 1488855281.742309, -0.303955, -0.614136, -0.203125, -29.804192, +220.114380, -111.032013 
1488855281.746534, 1488855281.746534, -0.303955, -0.614136, -0.203125, -6.412468, +228.811890, -116.311554 
1488855281.750579, 1488855281.750579, -0.303955, -0.614136, -0.203125, -6.412468, +228.811890, -116.311554 
1488855281.754534, 1488855281.754534, -0.517944, -0.634766, -0.095215, -6.412468, +228.811890, -120.217804 
1488855281.758478, 1488855281.758478, -0.517944, -0.634766, -0.095215, +27.385750, +236.380249, -119.470123 
1488855281.762428, 1488855281.762428, -0.517944, -0.634766, -0.095215, +27.385750, +236.380249, -119.470123 
1488855281.766384, 1488855281.766384, -0.517944, -0.634766, -0.095215, +51.815071, +249.579102, -121.377472 
1488855281.770329, 1488855281.770329, -0.517944, -0.634766, -0.095215, +51.815071, +249.579102, -121.377472 
1488855281.774228, 1488855281.774228, -0.663330, -0.306152, -0.304932, +51.815071, +249.579102, -121.377472 
1488855281.777988, 1488855281.777988, -0.663330, -0.306152, -0.304932, +63.472786, +269.003540, -121.377472 
1488855281.781736, 1488855281.781736, -0.663330, -0.306152, -0.304932, +63.472786, +269.003540, -121.377472 
1488855281.785488, 1488855281.785488, -0.663330, -0.306152, -0.304932, +63.472786, +269.003540, -121.377472 
1488855281.789234, 1488855281.789234, -0.663330, -0.306152, -0.304932, +65.151253, +285.605103, -120.843414 
1488855281.793122, 1488855281.793122, -0.706055, -0.023071, -0.523804, +65.151253, +285.605103, -120.843414 
1488855281.796879, 1488855281.796879, -0.706055, -0.023071, -0.523804, +65.151253, +285.605103, -120.843414 
1488855281.800628, 1488855281.800628, -0.706055, -0.023071, -0.523804, +65.837898, +301.001221, -121.407990 
1488855281.804603, 1488855281.804603, -0.706055, -0.023071, -0.523804, +65.837898, +301.001221, -121.407990 
1488855281.808550, 1488855281.808550, -0.706055, -0.023071, -0.523804, +65.837898, +301.001221, -121.407990 
1488855281.812501, 1488855281.812501, -0.706055, +0.071411, -0.687500, +68.309822, +317.953735, -126.916412 
1488855281.816497, 1488855281.816497, -0.893799, +0.071411, -0.687500, +68.309822, +317.953735, -126.916412 
1488855281.820442, 1488855281.820442, -0.893799, +0.071411, -0.687500, +68.309822, +336.859375, -140.054230 
1488855281.824343, 1488855281.824343, -0.893799, +0.071411, -0.687500, +62.542000, +336.859375, -140.054230 
1488855281.828095, 1488855281.828095, -0.893799, +0.071411, -0.687500, +62.542000, +336.859375, -140.054230 
1488855281.831845, 1488855281.831845, -0.893799, +0.071411, -0.703125, +50.212898, +352.682739, -152.764801 
1488855281.835740, 1488855281.835740, -1.541016, -0.125977, -0.703125, +50.212898, +352.682739, -152.764801 
1488855281.839684, 1488855281.839684, -1.541016, -0.125977, -0.703125, +50.212898, +352.682739, -152.764801 
1488855281.843675, 1488855281.843675, -1.541016, -0.125977, -0.703125, +42.156258, +363.623291, -157.311920 
1488855281.847616, 1488855281.847616, -1.541016, -0.125977, -0.703125, +42.156258, +363.623291, -157.311920 
1488855281.851562, 1488855281.851562, -1.541016, -0.125977, -0.607666, +42.156258, +363.623291, -157.311920 
1488855281.855525, 1488855281.855525, -2.161987, -0.268555, -0.607666, +44.277229, +371.908813, -157.922272 
1488855281.859718, 1488855281.859718, -2.161987, -0.268555, -0.607666, +44.277229, +371.908813, -157.922272 
1488855281.863758, 1488855281.863758, -2.161987, -0.268555, -0.607666, +44.277229, +375.815063, -156.701569 
1488855281.867715, 1488855281.867715, -2.161987, -0.268555, -0.607666, +64.006844, +374.762207, -156.701569 
1488855281.871666, 1488855281.871666, -2.161987, -0.268555, -0.260498, +64.006844, +374.762207, -156.701569 
1488855281.875485, 1488855281.875485, -2.931641, -0.240112, -0.260498, +97.026863, +369.162231, -155.389313 
1488855281.879240, 1488855281.879240, -2.931641, -0.240112, -0.260498, +97.026863, +369.162231, -155.389313 
1488855281.883024, 1488855281.883024, -2.931641, -0.240112, -0.260498, +97.026863, +369.162231, -155.389313 
1488855281.886970, 1488855281.886970, -2.931641, -0.240112, -0.260498, +135.097534, +352.331787, -154.397491 
1488855281.890917, 1488855281.890917, -2.931641, -0.240112, -0.260498, +135.097534, +352.331787, -154.397491 
1488855281.894929, 1488855281.894929, -3.785767, +0.102051, -0.076050, +135.097534, +352.331787, -154.397491 
1488855281.898680, 1488855281.898680, -3.785767, +0.102051, -0.076050, +173.488647, +328.726440, -150.384430 
1488855281.902437, 1488855281.902437, -3.785767, +0.102051, -0.076050, +173.488647, +328.726440, -150.384430 
1488855281.906207, 1488855281.906207, -3.785767, +0.102051, -0.076050, +173.488647, +328.726440, -150.384430 
1488855281.909956, 1488855281.909956, -3.785767, +0.102051, -0.076050, +210.445435, +293.875366, -130.090240 
1488855281.913805, 1488855281.913805, -3.537476, +1.561401, +0.708374, +210.445435, +293.875366, -130.090240 
1488855281.917560, 1488855281.917560, -3.537476, +1.561401, +0.708374, +210.445435, +293.875366, -130.090240 
1488855281.921311, 1488855281.921311, -3.537476, +1.561401, +0.708374, +234.340698, +252.905518, -98.260406 
1488855281.925282, 1488855281.925282, -3.537476, +1.561401, +0.708374, +234.340698, +252.905518, -98.260406 
1488855281.929231, 1488855281.929231, -3.537476, +1.561401, +0.708374, +234.340698, +221.655518, -58.236603 
1488855281.933236, 1488855281.933236, -2.571777, +3.133057, +1.421997, +243.450195, +221.258789, -58.236603 
1488855281.937189, 1488855281.937189, -2.571777, +3.133057, +1.421997, +243.450195, +221.258789, -58.236603 
1488855281.941129, 1488855281.941129, -2.571777, +3.133057, +1.421997, +226.635010, +173.178345, -18.579010 
1488855281.945082, 1488855281.945082, -2.571777, +3.133057, +1.421997, +226.635010, +173.178345, -18.579010 
1488855281.949024, 1488855281.949024, -2.571777, +3.133057, +1.421997, +226.635010, +173.178345, -18.579010 
1488855281.953004, 1488855281.953004, -3.136719, +2.538940, +2.825073, +135.829956, +76.376587, +8.017059 
1488855281.956750, 1488855281.956750, -3.136719, +2.538940, +2.825073, +135.829956, +76.376587, +8.017059 
1488855281.960492, 1488855281.960492, -3.136719, +2.538940, +2.825073, +135.829956, +76.376587, +8.017059 
1488855281.964323, 1488855281.964323, -3.136719, +2.538940, +2.825073, +23.281136, -26.589724, +30.554291 
1488855281.968237, 1488855281.968237, -3.136719, +2.538940, +2.825073, +23.281136, -26.589724, +30.554291 
1488855281.972155, 1488855281.972155, -2.353882, +2.781982, +1.379395, +23.281136, -26.589724, +65.710541 
1488855281.976111, 1488855281.976111, -2.353882, +2.781982, +1.379395, -22.769890, -93.667358, +66.153046 
1488855281.980202, 1488855281.980202, -2.353882, +2.781982, +1.379395, -22.769890, -93.667358, +66.153046 
1488855281.984565, 1488855281.984565, -2.353882, +2.781982, +1.379395, -53.028069, -148.766846, +91.696259 
1488855281.988517, 1488855281.988517, -2.353882, +2.781982, +1.379395, -53.028069, -148.766846, +91.696259 
1488855281.992456, 1488855281.992456, -0.549561, -0.965332, -1.771729, -53.028069, -148.766846, +91.696259 
1488855281.996419, 1488855281.996419, -0.549561, -0.965332, -1.771729, -76.190910, -150.292725, +63.589569 
1488855282.000364, 1488855282.000364, -0.549561, -0.965332, -1.771729, -76.190910, -150.292725, +63.589569 
1488855282.004323, 1488855282.004323, -0.549561, -0.965332, -1.771729, -76.190910, -150.292725, +63.589569 
1488855282.008274, 1488855282.008274, -0.549561, -0.965332, -1.771729, -96.225700, -80.773682, -22.683624 
1488855282.012222, 1488855282.012222, -2.472778, -1.523193, -0.817993, -96.225700, -80.773682, -22.683624 
1488855282.016022, 1488855282.016022, -2.472778, -1.523193, -0.817993, -96.225700, -80.773682, -28.985504 
1488855282.019776, 1488855282.019776, -2.472778, -1.523193, -0.817993, -98.087273, -79.354614, -28.985504 
1488855282.023531, 1488855282.023531, -2.472778, -1.523193, -0.817993, -98.087273, -79.354614, -28.985504 
1488855282.027284, 1488855282.027284, -2.472778, -1.523193, -0.817993, -98.087273, -212.167114, +32.293793 
1488855282.031036, 1488855282.031036, -3.410278, +1.146484, +0.734375, -79.029045, -214.440674, +32.293793 
1488855282.034942, 1488855282.034942, -3.420898, +1.146484, +0.734375, -79.029045, -214.440674, +32.293793 
1488855282.038692, 1488855282.038692, -3.420898, +1.146484, +0.734375, -58.673820, -262.002319, +95.800873 
1488855282.042558, 1488855282.042558, -3.420898, +1.146484, +0.734375, -58.673820, -262.002319, +95.800873 
1488855282.046625, 1488855282.046625, -3.420898, +1.146484, +0.734375, -58.673820, -262.002319, +95.800873 
1488855282.050573, 1488855282.050573, -3.420898, -0.566040, -0.542358, -46.543083, -167.245239, +103.979584 
1488855282.054530, 1488855282.054530, -1.591431, -0.566040, -0.542358, -46.543083, -167.245239, +103.979584 
1488855282.058476, 1488855282.058476, -1.591431, -0.566040, -0.542358, -46.543083, -167.245239, +103.979584 
1488855282.062418, 1488855282.062418, -1.591431, -0.566040, -0.542358, -66.547356, -133.004517, +131.964203 
1488855282.066209, 1488855282.066209, -1.591431, -0.566040, -0.542358, -66.547356, -133.004517, +131.964203 
1488855282.069957, 1488855282.069957, -1.591431, -0.566040, +0.078125, -66.547356, -133.004517, +131.964203 
1488855282.073762, 1488855282.073762, -1.113647, +0.245239, +0.078125, -0.598869, -137.917847, +192.526337 
1488855282.077716, 1488855282.077716, -1.113647, +0.245239, +0.078125, -0.598869, -137.917847, +192.526337 
1488855282.081663, 1488855282.081663, -1.113647, +0.245239, +0.078125, -0.598869, -98.855347, +184.240814 
1488855282.085612, 1488855282.085612, -1.113647, +0.245239, +0.078125, +67.424812, -101.693481, +184.240814 
1488855282.089558, 1488855282.089558, -1.113647, +0.245239, +0.140625, +67.424812, -101.693481, +184.240814 
1488855282.093521, 1488855282.093521, -1.225586, +0.374146, +0.148438, +89.244881, -94.918579, +140.707489 
1488855282.097468, 1488855282.097468, -1.225586, +0.374146, +0.148438, +89.244881, -94.918579, +140.707489 
1488855282.101574, 1488855282.101574, -1.225586, +0.374146, +0.148438, +89.244881, -94.918579, +140.707489 
1488855282.105838, 1488855282.105838, -1.225586, +0.374146, +0.148438, +110.408821, -110.299438, +108.206268 
1488855282.109791, 1488855282.109791, -1.225586, +0.374146, -0.041260, +110.408821, -110.299438, +108.206268 
1488855282.113726, 1488855282.113726, -0.857788, +1.048340, -0.041260, +110.408821, -110.299438, +108.206268 
1488855282.117481, 1488855282.117481, -0.857788, +1.048340, -0.041260, +88.787117, -122.521729, +80.481049 
1488855282.121231, 1488855282.121231, -0.857788, +1.048340, -0.041260, +88.787117, -122.521729, +80.481049 
1488855282.125145, 1488855282.125145, -0.857788, +1.048340, -0.041260, +88.787117, -114.709229, +47.094818 
1488855282.129092, 1488855282.129092, -0.857788, +1.048340, -0.041260, +39.516487, -115.884155, +47.094818 
1488855282.133055, 1488855282.133055, -1.316650, +0.772339, -0.215332, +39.516487, -115.884155, +47.094818 
1488855282.136811, 1488855282.136811, -1.316650, +0.772339, -0.215332, -3.025017, -111.550659, +34.155365 
1488855282.140562, 1488855282.140562, -1.316650, +0.772339, -0.215332, -3.025017, -111.550659, +34.155365 
1488855282.144318, 1488855282.144318, -1.316650, +0.772339, -0.215332, -3.025017, -111.550659, +34.155365 
1488855282.148062, 1488855282.148062, -1.316650, +0.772339, -0.215332, -17.932854, -108.208984, +24.420258 
1488855282.151810, 1488855282.151810, -1.203735, -0.205200, -0.033447, -17.932854, -108.208984, +24.420258 
1488855282.155723, 1488855282.155723, -1.203735, -0.205200, -0.033447, -17.932854, -108.208984, +24.420258 
1488855282.159467, 1488855282.159467, -1.203735, -0.205200, -0.033447, -3.223381, -89.410156, +24.939056 
1488855282.163374, 1488855282.163374, -1.203735, -0.205200, -0.033447, -3.223381, -89.410156, +24.939056 
1488855282.167129, 1488855282.167129, -1.203735, -0.205200, -0.033447, -3.223381, -89.410156, +24.939056 
1488855282.170875, 1488855282.170875, -0.990234, +0.027100, -0.644165, +8.632698, -74.609131, +32.492157 
1488855282.174730, 1488855282.174730, -0.990234, +0.027100, -0.644165, +8.632698, -74.609131, +32.492157 
1488855282.178680, 1488855282.178680, -0.990234, +0.027100, -0.644165, +8.632698, -74.609131, +32.492157 
1488855282.182633, 1488855282.182633, -0.990234, +0.027100, -0.644165, +8.617439, -58.282227, +34.094330 
1488855282.186587, 1488855282.186587, -0.990234, +0.027100, -0.644165, +8.617439, -58.282227, +34.094330 
1488855282.190641, 1488855282.190641, -1.323364, +0.144287, -0.249756, +8.617439, -60.342163, +31.668182 
1488855282.194602, 1488855282.194602, -1.323364, +0.144287, -0.249756, -2.002678, -60.342163, +31.668182 
1488855282.198552, 1488855282.198552, -1.323364, +0.144287, -0.249756, -2.002678, -60.342163, +31.668182 
1488855282.202495, 1488855282.202495, -1.323364, +0.144287, -0.249756, -12.958488, -60.876221, +23.352142 
1488855282.206445, 1488855282.206445, -1.323364, +0.144287, -0.249756, -12.958488, -60.876221, +23.352142 
1488855282.210394, 1488855282.210394, -1.232056, +0.231079, -0.177368, -12.958488, -60.876221, +23.352142 
1488855282.214292, 1488855282.214292, -1.232056, +0.231079, -0.177368, -9.952507, -59.869141, +24.862762 
1488855282.218039, 1488855282.218039, -1.232056, +0.231079, -0.177368, -9.952507, -59.869141, +24.862762 
1488855282.221956, 1488855282.221956, -1.232056, +0.231079, -0.177368, -9.952507, -59.869141, +24.862762 
1488855282.226295, 1488855282.226295, -1.232056, +0.231079, -0.177368, -10.303459, -51.995605, +23.062225 
1488855282.230237, 1488855282.230237, -0.932251, +0.398926, -0.453979, -10.303459, -51.995605, +23.062225 
1488855282.234192, 1488855282.234192, -0.932251, +0.398926, -0.453979, -10.303459, -44.183105, +22.009369 
1488855282.238139, 1488855282.238139, -0.932251, +0.398926, -0.453979, -16.712151, -43.984741, +22.009369 
1488855282.242082, 1488855282.242082, -0.932251, +0.398926, -0.453979, -16.712151, -43.984741, +22.009369 
1488855282.246036, 1488855282.246036, -0.932251, +0.398926, -0.453979, -21.625481, -39.010376, +18.286224 
1488855282.249980, 1488855282.249980, -0.969116, +0.274048, -0.295288, -21.625481, -39.010376, +18.286224 
1488855282.253902, 1488855282.253902, -0.969116, +0.274048, -0.295288, -21.625481, -39.010376, +18.286224 
1488855282.257650, 1488855282.257650, -0.969116, +0.274048, -0.295288, -26.767693, -41.329712, +17.004486 
1488855282.261398, 1488855282.261398, -0.969116, +0.274048, -0.295288, -26.767693, -41.329712, +17.004486 
1488855282.265205, 1488855282.265205, -0.969116, +0.274048, -0.295288, -26.767693, -41.329712, +17.004486 
1488855282.268954, 1488855282.268954, -0.969116, -0.127319, -0.203857, -19.123039, -42.703003, +16.882416 
1488855282.272710, 1488855282.272710, -1.112183, -0.127319, -0.203857, -19.123039, -42.703003, +16.882416 
1488855282.276509, 1488855282.276509, -1.112183, -0.127319, -0.203857, -19.123039, -42.703003, +16.882416 
1488855282.280265, 1488855282.280265, -1.112183, -0.127319, -0.203857, -9.265862, -40.032715, +23.077484 
1488855282.284208, 1488855282.284208, -1.112183, -0.127319, -0.203857, -9.265862, -40.032715, +23.077484 
1488855282.288151, 1488855282.288151, -1.112183, -0.127319, -0.172607, -9.265862, -40.032715, +27.334686 
1488855282.292102, 1488855282.292102, -1.156006, +0.244141, -0.173584, -5.741081, -44.183105, +27.334686 
1488855282.296084, 1488855282.296084, -1.156006, +0.244141, -0.173584, -5.741081, -44.183105, +27.334686 
1488855282.300026, 1488855282.300026, -1.156006, +0.244141, -0.173584, -11.539421, -51.186890, +28.891083 
1488855282.303951, 1488855282.303951, -1.156006, +0.244141, -0.173584, -11.539421, -51.186890, +28.891083 
1488855282.307708, 1488855282.307708, -1.156006, +0.244141, -0.173584, -11.539421, -51.186890, +28.891083 
1488855282.311462, 1488855282.311462, -0.950684, +0.082642, -0.417358, -19.901237, -58.038086, +27.792450 
1488855282.315339, 1488855282.315339, -0.950684, +0.082642, -0.417358, -19.901237, -58.038086, +27.792450 
1488855282.319287, 1488855282.319287, -0.950684, +0.082642, -0.417358, -19.901237, -58.038086, +27.792450 
1488855282.323284, 1488855282.323284, -0.950684, +0.082642, -0.417358, -25.028191, -65.179199, +30.539032 
1488855282.327237, 1488855282.327237, -0.950684, +0.082642, -0.417358, -25.028191, -65.179199, +30.539032 
1488855282.331189, 1488855282.331189, -0.940552, +0.126465, -0.401489, -25.028191, -65.179199, +30.539032 
1488855282.335153, 1488855282.335153, -0.940552, +0.126465, -0.401489, -25.409660, -73.418945, +34.460541 
1488855282.339421, 1488855282.339421, -0.940552, +0.126465, -0.401489, -25.409660, -73.418945, +34.460541 
1488855282.343770, 1488855282.343770, -0.940552, +0.126465, -0.401489, -22.403679, -78.286499, +39.175507 
1488855282.347722, 1488855282.347722, -0.940552, +0.126465, -0.401489, -22.403679, -78.286499, +39.175507 
1488855282.351667, 1488855282.351667, -1.103760, +0.271118, -0.393188, -22.403679, -78.286499, +39.175507 
1488855282.355487, 1488855282.355487, -1.103760, +0.271118, -0.393188, -19.153557, -79.461426, +41.174408 
1488855282.359231, 1488855282.359231, -1.103760, +0.271118, -0.393188, -19.153557, -79.461426, +41.174408 
1488855282.363016, 1488855282.363016, -1.103760, +0.271118, -0.393188, -19.153557, -79.461426, +41.174408 
1488855282.366951, 1488855282.366951, -1.103760, +0.271118, -0.393188, -22.327385, -80.117554, +41.800018 
1488855282.370890, 1488855282.370890, -1.377563, +0.391479, -0.123291, -22.327385, -80.117554, +41.800018 
1488855282.374798, 1488855282.374798, -1.377563, +0.391479, -0.123291, -22.327385, -80.117554, +41.800018 
1488855282.378548, 1488855282.378548, -1.377563, +0.391479, -0.123291, -33.573112, -84.725708, +39.892670 
1488855282.382299, 1488855282.382299, -1.377563, +0.391479, -0.123291, -33.573112, -84.725708, +39.892670 
1488855282.386054, 1488855282.386054, -1.377563, +0.391479, -0.123291, -33.573112, -84.725708, +39.892670 
1488855282.389803, 1488855282.389803, -1.351196, +0.149414, -0.186401, -40.943108, -87.960571, +35.818573 
1488855282.393692, 1488855282.393692, -1.351196, +0.149414, -0.186401, -40.943108, -87.960571, +35.818573 
1488855282.397447, 1488855282.397447, -1.351196, +0.149414, -0.186401, -40.943108, -91.866821, +33.957001 
1488855282.401191, 1488855282.401191, -1.351196, +0.149414, -0.186401, -42.575798, -91.775269, +33.957001 
1488855282.405183, 1488855282.405183, -1.351196, +0.149414, -0.186401, -42.575798, -91.775269, +33.957001 
1488855282.409103, 1488855282.409103, -1.394043, -0.042969, -0.172241, -37.876091, -99.343628, +34.445282 
1488855282.413031, 1488855282.413031, -1.394043, -0.042969, -0.172241, -37.876091, -99.343628, +34.445282 
1488855282.416948, 1488855282.416948, -1.394043, -0.042969, -0.172241, -37.876091, -99.343628, +34.445282 
1488855282.420871, 1488855282.420871, -1.394043, -0.042969, -0.172241, -23.715935, -109.002441, +38.595673 
1488855282.424786, 1488855282.424786, -1.394043, -0.042969, -0.172241, -23.715935, -109.002441, +38.595673 
1488855282.428673, 1488855282.428673, -1.579712, +0.173706, -0.473755, -23.715935, -109.002441, +38.595673 
1488855282.432559, 1488855282.432559, -1.579712, +0.173706, -0.473755, -13.034782, -117.196411, +44.744965 
1488855282.436358, 1488855282.436358, -1.579712, +0.173706, -0.473755, -13.034782, -117.196411, +44.744965 
1488855282.440109, 1488855282.440109, -1.579712, +0.173706, -0.473755, -13.034782, -117.196411, +44.744965 
1488855282.443939, 1488855282.443939, -1.579712, +0.173706, -0.473755, -12.851677, -125.176758, +51.550385 
1488855282.447889, 1488855282.447889, -1.860962, +0.152710, -0.481689, -12.851677, -125.176758, +51.550385 
1488855282.451840, 1488855282.451840, -1.864868, +0.152710, -0.481689, -12.851677, -136.895508, +55.380341 
1488855282.455791, 1488855282.455791, -1.864868, +0.152710, -0.481689, -19.885979, -136.254639, +55.380341 
1488855282.459821, 1488855282.459821, -1.864868, +0.152710, -0.481689, -19.885979, -136.254639, +55.380341 
1488855282.463780, 1488855282.463780, -1.864868, +0.152710, -0.481689, -28.751335, -148.217529, +56.738373 
1488855282.467726, 1488855282.467726, -1.958618, -0.164917, -0.611572, -28.751335, -148.217529, +56.738373 
1488855282.471709, 1488855282.471709, -1.941772, -0.164917, -0.611572, -28.751335, -148.217529, +56.738373 
1488855282.476007, 1488855282.476007, -1.941772, -0.164917, -0.611572, -31.589470, -158.715576, +59.225555 
1488855282.479961, 1488855282.479961, -1.941772, -0.164917, -0.611572, -31.589470, -158.715576, +59.225555 
1488855282.483886, 1488855282.483886, -1.941772, -0.164917, -0.611572, -31.589470, -158.715576, +59.225555 
1488855282.487747, 1488855282.487747, -1.928711, -0.137939, -0.867310, -34.580193, -169.411987, +64.703461 
1488855282.491505, 1488855282.491505, -1.928711, -0.137939, -0.867310, -34.580193, -169.411987, +64.703461 
1488855282.495273, 1488855282.495273, -1.928711, -0.137939, -0.867310, -34.580193, -169.411987, +65.618988 
1488855282.499029, 1488855282.499029, -1.928711, -0.137939, -0.867310, -46.421013, -178.323120, +65.618988 
1488855282.502778, 1488855282.502778, -1.928711, -0.137939, -0.867310, -46.421013, -178.323120, +65.618988 
1488855282.506761, 1488855282.506761, -1.928711, -0.137939, -1.114502, -65.952263, -186.944336, +68.624969 
1488855282.510701, 1488855282.510701, -1.986450, +0.014648, -1.114502, -63.861809, -186.944336, +68.624969 
1488855282.514616, 1488855282.514616, -1.986450, +0.014648, -1.114502, -63.861809, -186.944336, +68.624969 
1488855282.518365, 1488855282.518365, -1.986450, +0.014648, -1.114502, -92.014275, -193.551392, +65.649506 
1488855282.522114, 1488855282.522114, -1.986450, +0.014648, -1.114502, -92.014275, -193.551392, +65.649506 
1488855282.525997, 1488855282.525997, -1.986450, +0.014648, -1.114502, -92.014275, -193.551392, +65.649506 
1488855282.529748, 1488855282.529748, -2.104370, -0.395874, -1.730225, -126.071892, -198.739380, +53.884979 
1488855282.533616, 1488855282.533616, -2.104370, -0.395874, -1.730225, -126.071892, -198.739380, +53.884979 
1488855282.537368, 1488855282.537368, -2.104370, -0.395874, -1.730225, -126.071892, -198.739380, +53.884979 
1488855282.541122, 1488855282.541122, -2.104370, -0.395874, -1.730225, -138.263672, -203.194946, +57.119843 
1488855282.544987, 1488855282.544987, -2.104370, -0.395874, -1.730225, -138.263672, -203.194946, +57.119843 
1488855282.548928, 1488855282.548928, -2.432373, -0.324707, -1.509277, -138.263672, -203.194946, +57.119843 
1488855282.552870, 1488855282.552870, -2.432373, -0.324707, -1.509277, -134.662598, -204.446167, +68.212982 
1488855282.556818, 1488855282.556818, -2.432373, -0.324707, -1.509277, -134.662598, -204.446167, +68.212982 
1488855282.560769, 1488855282.560769, -2.432373, -0.324707, -1.509277, -134.662598, -204.446167, +70.806976 
1488855282.564657, 1488855282.564657, -2.432373, -0.324707, -1.509277, -137.058228, -206.948608, +70.806976 
1488855282.568407, 1488855282.568407, -2.006470, -0.240723, -1.401367, -137.058228, -206.948608, +70.806976 
1488855282.572157, 1488855282.572157, -2.006470, -0.240723, -1.401367, -143.802612, -206.811279, +59.729095 
1488855282.576164, 1488855282.576164, -2.006470, -0.240723, -1.401367, -143.802612, -206.811279, +59.729095 
1488855282.580107, 1488855282.580107, -2.006470, -0.240723, -1.401367, -143.802612, -206.811279, +59.729095 
1488855282.584053, 1488855282.584053, -2.006470, -0.240723, -1.401367, -157.627075, -190.011353, +46.179291 
1488855282.587802, 1488855282.587802, -1.520142, +0.335205, -1.463257, -157.627075, -190.011353, +46.179291 
1488855282.591718, 1488855282.591718, -1.520142, +0.335205, -1.463257, -157.627075, -190.011353, +46.179291 
1488855282.595930, 1488855282.595930, -1.520142, +0.335205, -1.463257, -181.049316, -156.640381, +41.235443 
1488855282.599878, 1488855282.599878, -1.520142, +0.335205, -1.463257, -181.049316, -156.640381, +41.235443 
1488855282.603866, 1488855282.603866, -1.520142, +0.335205, -1.463257, -181.049316, -156.640381, +37.329193 
1488855282.607811, 1488855282.607811, -1.569092, +0.432983, -0.563965, -170.673340, -133.080811, +37.573334 
1488855282.611755, 1488855282.611755, -1.569092, +0.432983, -0.563965, -170.673340, -133.080811, +37.573334 
1488855282.615722, 1488855282.615722, -1.569092, +0.432983, -0.563965, -122.821770, -128.854126, +46.316620 
1488855282.619667, 1488855282.619667, -1.569092, +0.432983, -0.563965, -122.821770, -128.854126, +46.316620 
1488855282.623592, 1488855282.623592, -1.569092, +0.432983, -0.563965, -122.821770, -128.854126, +46.316620 
1488855282.627336, 1488855282.627336, -1.858154, -0.170044, +0.444702, -74.848137, -131.509155, +51.275726 
1488855282.631082, 1488855282.631082, -1.858154, -0.170044, +0.444702, -74.848137, -131.509155, +51.275726 
1488855282.634958, 1488855282.634958, -1.858154, -0.170044, +0.444702, -74.848137, -131.509155, +51.275726 
1488855282.638712, 1488855282.638712, -1.858154, -0.170044, +0.444702, -44.483147, -158.639282, +7.299897 
1488855282.642464, 1488855282.642464, -1.858154, -0.170044, +0.444702, -44.483147, -158.639282, +7.299897 
1488855282.646317, 1488855282.646317, -0.358154, -0.488159, +0.762939, -44.483147, -158.639282, +7.299897 
1488855282.650066, 1488855282.650066, -0.363647, -0.488159, +0.762939, +44.658699, -159.936279, -29.031281 
1488855282.653996, 1488855282.653996, -0.363647, -0.488159, +0.762939, +44.658699, -159.936279, -29.031281 
1488855282.657946, 1488855282.657946, -0.363647, -0.488159, +0.762939, +44.658699, -159.936279, -29.031281 
1488855282.661886, 1488855282.661886, -0.363647, -0.488159, +0.762939, +151.699097, -84.527344, -30.862335 
1488855282.665890, 1488855282.665890, -0.363647, +0.564209, -0.202637, +151.699097, -84.527344, -30.862335 
1488855282.669662, 1488855282.669662, -0.316528, +0.564209, -0.202637, +151.699097, -84.527344, -10.583405 
1488855282.673615, 1488855282.673615, -0.316528, +0.564209, -0.202637, +200.450928, -18.960329, -10.583405 
1488855282.677508, 1488855282.677508, -0.316528, +0.564209, -0.202637, +200.450928, -18.960329, -10.583405 
1488855282.681688, 1488855282.681688, -0.316528, +0.564209, -0.202637, +204.692871, +22.055296, +1.883026 
1488855282.685523, 1488855282.685523, -0.316528, +0.689209, -0.184692, +204.692871, +22.055296, +1.883026 
1488855282.689268, 1488855282.689268, +0.021240, +0.689941, -0.184692, +204.692871, +22.055296, +1.883026 
1488855282.693025, 1488855282.693025, +0.021240, +0.689941, -0.184692, +190.563232, +62.475830, -2.542022 
1488855282.696779, 1488855282.696779, +0.021240, +0.689941, -0.184692, +190.563232, +62.475830, -2.542022 
1488855282.700521, 1488855282.700521, +0.021240, +0.689941, -0.184692, +190.563232, +62.475830, -2.542022 
1488855282.704283, 1488855282.704283, +0.021240, +0.689941, -0.184692, +163.158447, +95.648438, -20.013336 
1488855282.708022, 1488855282.708022, +0.140015, +0.514648, -0.192627, +163.158447, +95.648438, -20.013336 
1488855282.711774, 1488855282.711774, +0.140015, +0.514648, -0.192627, +163.158447, +95.648438, -20.013336 
1488855282.715585, 1488855282.715585, +0.140015, +0.514648, -0.192627, +127.071419, +118.887573, -47.509674 
1488855282.719328, 1488855282.719328, +0.140015, +0.514648, -0.192627, +127.071419, +118.887573, -47.509674 
1488855282.723141, 1488855282.723141, +0.140015, +0.514648, -0.192627, +127.071419, +118.887573, -47.509674 
1488855282.726888, 1488855282.726888, +0.043823, +0.456177, -0.204712, +92.876472, +136.191040, -73.113922 
1488855282.730635, 1488855282.730635, +0.043823, +0.456177, -0.204712, +92.876472, +136.191040, -73.113922 
1488855282.734540, 1488855282.734540, +0.043823, +0.456177, -0.204712, +92.876472, +136.191040, -88.738922 
1488855282.738293, 1488855282.738293, +0.043823, +0.456177, -0.204712, +61.199226, +158.377319, -87.121490 
1488855282.742044, 1488855282.742044, +0.043823, +0.456177, -0.204712, +61.199226, +158.377319, -87.121490 
1488855282.745816, 1488855282.745816, -0.046875, +0.453247, -0.177002, +61.199226, +158.377319, -89.761261 
1488855282.749568, 1488855282.749568, -0.046875, +0.453247, -0.177002, +37.593880, +179.724365, -89.761261 
1488855282.753344, 1488855282.753344, -0.046875, +0.453247, -0.177002, +37.593880, +179.724365, -89.761261 
1488855282.757294, 1488855282.757294, -0.046875, +0.453247, -0.177002, +23.448982, +194.983154, -93.545441 
1488855282.761243, 1488855282.761243, -0.046875, +0.453247, -0.177002, +23.448982, +194.983154, -93.545441 
1488855282.765207, 1488855282.765207, -0.046875, +0.049438, -0.331543, +23.448982, +194.983154, -93.545441 
1488855282.769152, 1488855282.769152, -0.083740, +0.049438, -0.331543, +12.065926, +207.617432, -106.790070 
1488855282.773115, 1488855282.773115, -0.083740, +0.049438, -0.331543, +12.065926, +207.617432, -106.790070 
1488855282.777072, 1488855282.777072, -0.083740, +0.049438, -0.331543, +12.065926, +207.617432, -106.790070 
1488855282.781133, 1488855282.781133, -0.083740, +0.049438, -0.331543, +3.368416, +223.379761, -127.206329 
1488855282.785003, 1488855282.785003, -0.083740, -0.202637, -0.342041, +3.368416, +223.379761, -127.206329 
1488855282.788759, 1488855282.788759, -0.238892, -0.202637, -0.342041, +3.368416, +223.379761, -127.206329 
1488855282.792689, 1488855282.792689, -0.238892, -0.202637, -0.342041, +2.391853, +239.203125, -144.433502 
1488855282.796959, 1488855282.796959, -0.238892, -0.202637, -0.342041, +2.391853, +239.203125, -144.433502 
1488855282.800908, 1488855282.800908, -0.238892, -0.202637, -0.342041, +0.820198, +248.434692, -157.983307 
1488855282.804911, 1488855282.804911, -0.238892, -0.360352, -0.361206, +0.820198, +248.434692, -157.983307 
1488855282.808853, 1488855282.808853, -0.410034, -0.360352, -0.361206, +0.820198, +248.434692, -157.983307 
1488855282.812803, 1488855282.812803, -0.410034, -0.360352, -0.361206, +6.389656, +256.796509, -162.591461 
1488855282.816765, 1488855282.816765, -0.410034, -0.360352, -0.361206, +6.389656, +256.796509, -162.591461 
1488855282.820718, 1488855282.820718, -0.410034, -0.360352, -0.361206, +6.389656, +256.796509, -162.591461 
1488855282.824632, 1488855282.824632, -0.410034, -0.266602, -0.404419, +20.320930, +267.828613, -158.013824 
1488855282.828380, 1488855282.828380, -0.538818, -0.269409, -0.404419, +20.320930, +267.828613, -158.013824 
1488855282.832134, 1488855282.832134, -0.538818, -0.269409, -0.404419, +20.320930, +267.828613, -158.013824 
1488855282.835885, 1488855282.835885, -0.538818, -0.269409, -0.404419, +36.922493, +281.424194, -149.453644 
1488855282.839643, 1488855282.839643, -0.538818, -0.269409, -0.404419, +36.922493, +281.424194, -149.453644 
1488855282.843435, 1488855282.843435, -0.538818, -0.269409, -0.404419, +36.922493, +281.424194, -141.641144 
1488855282.847194, 1488855282.847194, -0.710938, -0.115845, -0.483154, +55.461922, +295.263916, -141.671661 
1488855282.850945, 1488855282.850945, -0.710938, -0.115845, -0.483154, +55.461922, +295.263916, -141.671661 
1488855282.854927, 1488855282.854927, -0.710938, -0.115845, -0.483154, +55.461922, +310.110718, -136.178497 
1488855282.858875, 1488855282.858875, -0.710938, -0.115845, -0.483154, +70.781746, +310.110718, -136.178497 
1488855282.862821, 1488855282.862821, -0.710938, -0.115845, -0.483154, +70.781746, +310.110718, -136.178497 
1488855282.866778, 1488855282.866778, -0.926147, +0.150391, -0.554321, +83.950081, +327.078491, -131.371979 
1488855282.870724, 1488855282.870724, -0.926147, +0.150391, -0.554321, +83.950081, +327.078491, -131.371979 
1488855282.874739, 1488855282.874739, -0.926147, +0.150391, -0.554321, +83.950081, +327.078491, -131.371979 
1488855282.878508, 1488855282.878508, -0.926147, +0.150391, -0.554321, +90.862312, +348.379761, -129.418854 
1488855282.882265, 1488855282.882265, -0.926147, +0.150391, -0.554321, +90.862312, +348.379761, -129.418854 
1488855282.886104, 1488855282.886104, -1.334351, +0.427246, -0.579712, +90.862312, +348.379761, -129.418854 
1488855282.890644, 1488855282.890644, -1.334351, +0.427246, -0.579712, +90.938606, +371.008545, -126.779083 
1488855282.894466, 1488855282.894466, -1.334351, +0.427246, -0.579712, +90.938606, +371.008545, -126.779083 
1488855282.898209, 1488855282.898209, -1.334351, +0.427246, -0.579712, +90.938606, +371.008545, -115.884308 
1488855282.901955, 1488855282.901955, -1.334351, +0.427246, -0.579712, +93.486824, +394.796997, -115.884308 
1488855282.905753, 1488855282.905753, -2.160400, +0.526367, -0.688721, +93.486824, +394.796997, -115.884308 
1488855282.909499, 1488855282.909499, -2.160400, +0.526367, -0.688721, +93.486824, +412.848145, -100.915436 
1488855282.913292, 1488855282.913292, -2.160400, +0.526367, -0.688721, +103.191414, +412.848145, -100.915436 
1488855282.917032, 1488855282.917032, -2.160400, +0.526367, -0.688721, +103.191414, +412.848145, -100.915436 
1488855282.920783, 1488855282.920783, -2.160400, +0.526367, -0.688721, +123.729744, +413.015991, -88.738922 
1488855282.924536, 1488855282.924536, -3.294312, +0.257080, -0.395142, +123.729744, +413.015991, -88.738922 
1488855282.928397, 1488855282.928397, -3.294312, +0.257080, -0.395142, +123.729744, +413.015991, -88.738922 
1488855282.932146, 1488855282.932146, -3.294312, +0.257080, -0.395142, +143.917114, +395.971924, -84.466461 
1488855282.936083, 1488855282.936083, -3.294312, +0.257080, -0.395142, +143.917114, +395.971924, -84.466461 
1488855282.939841, 1488855282.939841, -3.294312, +0.257080, -0.395142, +143.917114, +395.971924, -84.466461 
1488855282.943791, 1488855282.943791, -3.294312, +0.642944, +0.388184, +147.747070, +357.351929, -94.216827 
1488855282.947739, 1488855282.947739, -3.999023, +0.642944, +0.388184, +147.747070, +357.351929, -94.216827 
1488855282.951694, 1488855282.951694, -3.999023, +0.642944, +0.388184, +147.747070, +357.351929, -94.216827 
1488855282.955690, 1488855282.955690, -3.999023, +0.642944, +0.388184, +166.606934, +293.921143, -95.178131 
1488855282.959646, 1488855282.959646, -3.999023, +0.642944, +0.388184, +166.606934, +293.921143, -95.178131 
1488855282.963595, 1488855282.963595, -3.999023, +2.091309, +1.126221, +166.606934, +293.921143, -82.681183 
1488855282.967537, 1488855282.967537, -3.266235, +2.091309, +1.126221, +185.863525, +227.102905, -82.681183 
1488855282.971480, 1488855282.971480, -3.266235, +2.091309, +1.126221, +185.863525, +227.102905, -82.681183 
1488855282.975307, 1488855282.975307, -3.266235, +2.091309, +1.126221, +186.550171, +169.943481, -52.316193 
1488855282.979050, 1488855282.979050, -3.266235, +2.091309, +1.126221, +186.550171, +169.943481, -52.316193 
1488855282.982800, 1488855282.982800, -3.266235, +2.091309, +2.876221, +186.550171, +169.943481, -52.316193 
1488855282.986749, 1488855282.986749, -3.356201, +3.041870, +2.901245, +148.204834, +109.015137, -18.502716 
1488855282.990697, 1488855282.990697, -3.356201, +3.041870, +2.901245, +148.204834, +109.015137, -18.502716 
1488855282.994698, 1488855282.994698, -3.356201, +3.041870, +2.901245, +148.204834, +109.015137, -18.502716 
1488855282.998642, 1488855282.998642, -3.356201, +3.041870, +2.901245, +76.961555, +15.097288, +21.017548 
1488855283.003120, 1488855283.003120, -3.356201, +2.541870, +1.527344, +76.961555, +15.097288, +21.017548 
1488855283.007072, 1488855283.007072, -2.416260, +2.545654, +1.527344, +76.961555, +15.097288, +83.899017 
1488855283.011018, 1488855283.011018, -2.416260, +2.545654, +1.527344, +15.453377, -47.372192, +83.899017 
1488855283.014979, 1488855283.014979, -2.416260, +2.545654, +1.527344, +15.453377, -47.372192, +83.899017 
1488855283.018921, 1488855283.018921, -2.416260, +2.545654, +1.527344, -32.093010, -120.690674, +120.565887 
1488855283.022865, 1488855283.022865, -2.416260, +2.545654, -1.651367, -32.093010, -120.690674, +120.565887 
1488855283.026625, 1488855283.026625, -0.978760, -1.315186, -1.651367, -32.093010, -120.690674, +120.565887 
1488855283.030385, 1488855283.030385, -0.978760, -1.315186, -1.651367, -76.358757, -154.351562, +71.035858 
1488855283.034145, 1488855283.034145, -0.978760, -1.315186, -1.651367, -76.358757, -154.351562, +71.035858 
1488855283.037897, 1488855283.037897, -0.978760, -1.315186, -1.651367, -76.358757, -154.351562, +71.035858 
1488855283.041651, 1488855283.041651, -0.978760, -1.315186, -1.651367, -80.707512, -75.188965, -24.163727 
1488855283.045418, 1488855283.045418, -2.030640, -1.544678, -1.305054, -80.707512, -75.188965, -24.163727 
1488855283.049166, 1488855283.049166, -2.030640, -1.544678, -1.305054, -80.707512, -75.188965, -24.163727 
1488855283.052917, 1488855283.052917, -2.030640, -1.544678, -1.305054, -58.872185, -84.863037, -3.259186 
1488855283.056824, 1488855283.056824, -2.030640, -1.544678, -1.305054, -58.872185, -84.863037, -3.259186 
1488855283.060576, 1488855283.060576, -2.030640, -1.544678, -1.305054, -58.872185, -84.863037, -3.259186 
1488855283.064514, 1488855283.064514, -3.677734, +1.326172, +1.597168, -99.246941, -236.062378, +51.123138 
1488855283.068448, 1488855283.068448, -3.677734, +1.326172, +1.597168, -99.246941, -236.062378, +51.123138 
1488855283.072391, 1488855283.072391, -3.677734, +1.326172, +1.597168, -99.246941, -236.062378, +70.211884 
1488855283.076262, 1488855283.076262, -3.677734, +1.326172, +1.597168, -148.258179, -273.827881, +70.211884 
1488855283.080009, 1488855283.080009, -3.677734, +1.326172, +1.597168, -148.258179, -273.827881, +70.211884 
1488855283.083799, 1488855283.083799, -1.691284, -0.994629, -1.325928, -148.258179, -172.921509, +71.569916 
1488855283.087744, 1488855283.087744, -1.691284, -0.994629, -1.325928, -145.969360, -172.921509, +71.569916 
1488855283.091686, 1488855283.091686, -1.691284, -0.994629, -1.325928, -145.969360, -172.921509, +71.569916 
1488855283.095634, 1488855283.095634, -1.691284, -0.994629, -1.325928, -132.480591, -136.102051, +133.825775 
1488855283.099582, 1488855283.099582, -1.691284, -0.994629, -1.325928, -132.480591, -136.102051, +133.825775 
1488855283.103538, 1488855283.103538, -1.409058, +0.644775, +0.082886, -132.480591, -136.102051, +133.825775 
1488855283.107484, 1488855283.107484, -1.409058, +0.644775, +0.082886, -40.744743, -142.388672, +203.695770 
1488855283.111433, 1488855283.111433, -1.409058, +0.644775, +0.082886, -40.744743, -142.388672, +203.695770 
1488855283.115394, 1488855283.115394, -1.409058, +0.644775, +0.082886, -40.744743, -142.388672, +203.695770 
1488855283.119521, 1488855283.119521, -1.409058, +0.644775, +0.082886, +44.399300, -117.257446, +186.560150 
1488855283.123854, 1488855283.123854, -1.523438, +0.397583, +0.549072, +44.399300, -117.257446, +186.560150 
1488855283.127611, 1488855283.127611, -1.523438, +0.397583, +0.549072, +73.864021, -121.392578, +132.589813 
1488855283.131367, 1488855283.131367, -1.523438, +0.397583, +0.549072, +73.864021, -121.392578, +132.589813 
1488855283.135233, 1488855283.135233, -1.523438, +0.397583, +0.549072, +73.864021, -121.392578, +132.589813 
1488855283.139187, 1488855283.139187, -1.523438, +0.397583, +0.549072, +90.038338, -150.262207, +96.853729 
1488855283.143135, 1488855283.143135, -0.473145, +0.728271, -0.121826, +90.038338, -150.262207, +96.853729 
1488855283.147085, 1488855283.147085, -0.473145, +0.728271, -0.121826, +90.038338, -150.262207, +96.853729 
1488855283.151027, 1488855283.151027, -0.473145, +0.728271, -0.121826, +88.878670, -138.085693, +68.502899 
1488855283.154905, 1488855283.154905, -0.473145, +0.728271, -0.121826, +88.878670, -138.085693, +68.502899 
1488855283.158658, 1488855283.158658, -0.473145, +0.728271, -0.121826, +88.878670, -138.085693, +68.502899 
1488855283.162415, 1488855283.162415, -1.285645, +0.662231, -0.113525, +54.164925, -126.046509, +49.292084 
1488855283.166186, 1488855283.166186, -1.298096, +0.662231, -0.113525, +54.164925, -126.046509, +49.292084 
1488855283.169936, 1488855283.169936, -1.298096, +0.662231, -0.113525, +54.164925, -126.046509, +49.292084 
1488855283.173798, 1488855283.173798, -1.298096, +0.662231, -0.113525, +2.925911, -125.359863, +33.636566 
1488855283.177546, 1488855283.177546, -1.298096, +0.662231, -0.113525, +2.925911, -125.359863, +33.636566 
1488855283.181295, 1488855283.181295, -1.298096, +0.662231, -0.113525, +2.925911, -125.359863, +27.700897 
1488855283.185219, 1488855283.185219, -1.158936, +0.000488, -0.079224, -8.579216, -113.015503, +27.700897 
1488855283.189144, 1488855283.189144, -1.158936, +0.000488, -0.079224, -8.579216, -113.015503, +27.700897 
1488855283.193077, 1488855283.193077, -1.158936, +0.000488, -0.079224, +9.044685, -96.322388, +25.091644 
1488855283.196998, 1488855283.196998, -1.158936, +0.000488, -0.079224, +9.044685, -96.322388, +25.091644 
1488855283.200918, 1488855283.200918, -1.158936, +0.000488, -0.079224, +9.044685, -96.322388, +25.091644 
1488855283.204897, 1488855283.204897, -0.886475, +0.174561, -0.495239, +15.804329, -74.349731, +27.121063 
1488855283.208826, 1488855283.208826, -0.886475, +0.174561, -0.495239, +15.804329, -74.349731, +27.121063 
1488855283.212758, 1488855283.212758, -0.886475, +0.174561, -0.495239, +15.804329, -74.349731, +27.121063 
1488855283.216693, 1488855283.216693, -0.886475, +0.174561, -0.495239, +13.835945, -55.611938, +25.381561 
1488855283.220716, 1488855283.220716, -0.886475, +0.174561, -0.495239, +13.835945, -55.611938, +25.381561 
1488855283.224692, 1488855283.224692, -1.274902, +0.230957, -0.185669, +13.835945, -55.611938, +17.523285 
1488855283.228615, 1488855283.228615, -1.274902, +0.230957, -0.185669, -2.475700, -53.277344, +17.523285 
1488855283.232535, 1488855283.232535, -1.274902, +0.230957, -0.185669, -2.475700, -53.277344, +17.523285 
1488855283.236523, 1488855283.236523, -1.274902, +0.230957, -0.185669, -14.499626, -52.987427, +11.953827 
1488855283.240545, 1488855283.240545, -1.274902, +0.230957, -0.185669, -14.499626, -52.987427, +11.953827 
1488855283.244755, 1488855283.244755, -1.130493, +0.106689, -0.126099, -14.499626, -52.987427, +11.953827 
1488855283.248709, 1488855283.248709, -1.130493, +0.106689, -0.126099, -10.517082, -49.477905, +13.449188 
1488855283.252661, 1488855283.252661, -1.130493, +0.106689, -0.126099, -10.517082, -49.477905, +13.449188 
1488855283.256621, 1488855283.256621, -1.130493, +0.106689, -0.126099, -10.517082, -49.477905, +13.449188 
1488855283.260573, 1488855283.260573, -1.130493, +0.106689, -0.126099, -5.054436, -41.970581, +13.205048 
1488855283.264529, 1488855283.264529, -1.034302, +0.436401, -0.445801, -5.054436, -41.970581, +13.205048 
1488855283.268470, 1488855283.268470, -1.034302, +0.436401, -0.445801, -5.054436, -41.970581, +10.046478 
1488855283.272417, 1488855283.272417, -1.034302, +0.436401, -0.445801, -6.137810, -37.347168, +10.046478 
1488855283.276205, 1488855283.276205, -1.034302, +0.436401, -0.445801, -6.137810, -37.347168, +10.046478 
1488855283.279956, 1488855283.279956, -1.034302, +0.436401, -0.445801, -10.044060, -32.174438, +7.925507 
1488855283.283718, 1488855283.283718, -0.926270, +0.376831, -0.317627, -10.379753, -32.174438, +7.925507 
1488855283.287473, 1488855283.287473, -0.926270, +0.376831, -0.317627, -10.379753, -32.174438, +7.925507 
1488855283.291224, 1488855283.291224, -0.926270, +0.376831, -0.317627, -13.278923, -31.609865, +8.764740 
1488855283.295307, 1488855283.295307, -0.926270, +0.376831, -0.317627, -13.278923, -31.609865, +8.764740 
1488855283.299054, 1488855283.299054, -0.926270, +0.376831, -0.317627, -13.278923, -31.609865, +8.764740 
1488855283.302792, 1488855283.302792, -1.171631, -0.052734, -0.249634, -11.417351, -31.426760, +8.734222 
1488855283.306570, 1488855283.306570, -1.171631, -0.052734, -0.249634, -11.417351, -31.426760, +8.734222 
1488855283.310316, 1488855283.310316, -1.171631, -0.052734, -0.249634, -11.417351, -31.426760, +8.734222 
1488855283.314073, 1488855283.314073, -1.171631, -0.052734, -0.249634, -6.534538, -32.906860, +13.739105 
1488855283.317818, 1488855283.317818, -1.171631, -0.052734, -0.249634, -6.534538, -32.906860, +13.739105 
1488855283.321562, 1488855283.321562, -1.234375, +0.259521, -0.334961, -6.534538, -32.906860, +13.739105 
1488855283.325311, 1488855283.325311, -1.234375, +0.259521, -0.334961, -9.830437, -38.720459, +14.761444 
1488855283.329054, 1488855283.329054, -1.234375, +0.259521, -0.334961, -9.830437, -38.720459, +14.761444 
1488855283.332801, 1488855283.332801, -1.234375, +0.259521, -0.334961, -9.830437, -38.720459, +14.761444 
1488855283.336581, 1488855283.336581, -1.234375, +0.259521, -0.334961, -17.749748, -48.272461, +15.249725 
1488855283.340333, 1488855283.340333, -1.234375, +0.259521, -0.584961, -17.749748, -48.272461, +15.249725 
1488855283.344303, 1488855283.344303, -1.005737, +0.201050, -0.584595, -17.749748, -48.272461, +15.249725 
1488855283.348063, 1488855283.348063, -1.005737, +0.201050, -0.584595, -29.331169, -58.373779, +15.554901 
1488855283.351822, 1488855283.351822, -1.005737, +0.201050, -0.584595, -29.331169, -58.373779, +15.554901 
1488855283.355863, 1488855283.355863, -1.005737, +0.201050, -0.584595, -29.331169, -68.368286, +22.543427 
1488855283.359809, 1488855283.359809, -1.005737, +0.201050, -0.584595, -37.891350, -68.368286, +22.543427 
1488855283.363768, 1488855283.363768, -0.974854, +0.159302, -0.601196, -37.891350, -68.368286, +22.543427 
1488855283.367720, 1488855283.367720, -0.974854, +0.159302, -0.601196, -40.546379, -78.576416, +30.111786 
1488855283.371784, 1488855283.371784, -0.974854, +0.159302, -0.601196, -40.546379, -78.576416, +30.111786 
1488855283.375610, 1488855283.375610, -0.974854, +0.159302, -0.601196, -40.546379, -78.576416, +30.111786 
1488855283.379366, 1488855283.379366, -0.974854, +0.159302, -0.601196, -44.376335, -84.710449, +35.803314 
1488855283.383117, 1488855283.383117, -1.100952, +0.325684, -0.554932, -44.376335, -84.710449, +35.803314 
1488855283.386874, 1488855283.386874, -1.100952, +0.325684, -0.554932, -44.376335, -84.710449, +35.803314 
1488855283.390622, 1488855283.390622, -1.100952, +0.325684, -0.554932, -49.732170, -85.976929, +39.663788 
1488855283.394507, 1488855283.394507, -1.100952, +0.325684, -0.554932, -49.732170, -85.976929, +39.663788 
1488855283.398489, 1488855283.398489, -1.100952, +0.325684, -0.554932, -49.732170, -85.976929, +39.663788 
1488855283.402443, 1488855283.402443, -1.368652, +0.429688, -0.215942, -54.630241, -86.236328, +41.861053 
1488855283.406381, 1488855283.406381, -1.368652, +0.429688, -0.215942, -54.630241, -86.236328, +41.861053 
1488855283.410453, 1488855283.410453, -1.368652, +0.429688, -0.215942, -70.255241, -86.709351, +37.649628 
1488855283.414652, 1488855283.414652, -1.368652, +0.429688, -0.215942, -68.469963, -86.709351, +37.649628 
1488855283.418400, 1488855283.418400, -1.368652, +0.429688, -0.215942, -68.469963, -86.709351, +37.649628 
1488855283.422156, 1488855283.422156, -1.241577, +0.175659, -0.098755, -77.777824, -87.426514, +32.843109 
1488855283.426131, 1488855283.426131, -1.241577, +0.175659, -0.098755, -77.777824, -87.426514, +32.843109 
1488855283.430026, 1488855283.430026, -1.241577, +0.175659, -0.098755, -77.777824, -87.426514, +32.843109 
1488855283.433952, 1488855283.433952, -1.241577, +0.175659, -0.098755, -77.213249, -89.623779, +31.210419 
1488855283.437901, 1488855283.437901, -1.241577, +0.175659, -0.098755, -77.213249, -89.623779, +31.210419 
1488855283.441855, 1488855283.441855, -1.250610, -0.027466, +0.116333, -77.213249, -89.623779, +31.210419 
1488855283.445685, 1488855283.445685, -1.250610, -0.027466, +0.116333, -63.220940, -94.399780, +35.101410 
1488855283.449440, 1488855283.449440, -1.250610, -0.027466, +0.116333, -63.220940, -94.399780, +35.101410 
1488855283.453249, 1488855283.453249, -1.250610, -0.027466, +0.116333, -63.220940, -94.399780, +42.913910 
1488855283.457002, 1488855283.457002, -1.250610, -0.027466, +0.116333, -43.613396, -101.083130, +39.587494 
1488855283.460755, 1488855283.460755, -1.395264, -0.013184, -0.180664, -43.613396, -101.083130, +39.587494 
1488855283.464647, 1488855283.464647, -1.395264, -0.013184, -0.180664, -43.613396, -104.989380, +46.682831 
1488855283.468410, 1488855283.468410, -1.395264, -0.013184, -0.180664, -15.827141, -105.462402, +46.682831 
1488855283.472157, 1488855283.472157, -1.395264, -0.013184, -0.180664, -15.827141, -105.462402, +46.682831 
1488855283.476212, 1488855283.476212, -1.395264, -0.013184, -0.180664, -1.422844, -116.326660, +55.914398 
1488855283.480149, 1488855283.480149, -1.707764, +0.195068, -0.465820, -1.422844, -116.326660, +55.914398 
1488855283.484110, 1488855283.484110, -1.693115, +0.195068, -0.465820, -1.422844, -116.326660, +55.914398 
1488855283.488058, 1488855283.488058, -1.693115, +0.195068, -0.465820, +2.468147, -129.159302, +62.460419 
1488855283.491995, 1488855283.491995, -1.693115, +0.195068, -0.465820, +2.468147, -129.159302, +62.460419 
1488855283.495950, 1488855283.495950, -1.693115, +0.195068, -0.465820, +2.468147, -129.159302, +62.460419 
1488855283.499889, 1488855283.499889, -1.974365, +0.399170, -0.768066, -5.222282, -139.214844, +67.526337 
1488855283.503997, 1488855283.503997, -1.982056, +0.399170, -0.768066, -5.222282, -139.214844, +67.526337 
1488855283.507879, 1488855283.507879, -1.982056, +0.399170, -0.768066, -5.222282, -147.027344, +72.576996 
1488855283.512032, 1488855283.512032, -1.982056, +0.399170, -0.768066, -21.366081, -148.034424, +72.576996 
1488855283.515826, 1488855283.515826, -1.982056, +0.399170, -0.768066, -21.366081, -148.034424, +72.576996 
1488855283.519687, 1488855283.519687, -1.982056, +0.044434, -0.716919, -45.093498, -161.553711, +75.521942 
1488855283.523490, 1488855283.523490, -2.121338, +0.044434, -0.716919, -45.093498, -161.553711, +75.521942 
1488855283.527237, 1488855283.527237, -2.121338, +0.044434, -0.716919, -45.093498, -161.553711, +75.521942 
1488855283.530984, 1488855283.530984, -2.121338, +0.044434, -0.716919, -65.830193, -174.096436, +77.642914 
1488855283.534732, 1488855283.534732, -2.121338, +0.044434, -0.716919, -65.830193, -174.096436, +77.642914 
1488855283.538476, 1488855283.538476, -2.121338, +0.044434, -0.716919, -65.830193, -174.096436, +77.642914 
1488855283.542220, 1488855283.542220, -2.080933, -0.332031, -0.794678, -80.539665, -186.257690, +79.611298 
1488855283.545985, 1488855283.545985, -2.080933, -0.332031, -0.794678, -80.539665, -186.257690, +79.611298 
1488855283.549726, 1488855283.549726, -2.080933, -0.332031, -0.794678, -80.539665, -186.257690, +79.611298 
1488855283.553622, 1488855283.553622, -2.080933, -0.332031, -0.794678, -91.709099, -196.160645, +85.104462 
1488855283.557378, 1488855283.557378, -2.080933, -0.332031, -0.794678, -91.709099, -196.160645, +85.104462 
1488855283.561130, 1488855283.561130, -2.012573, -0.671265, -1.507935, -91.709099, -196.160645, +85.104462 
1488855283.565074, 1488855283.565074, -2.012573, -0.671265, -1.507935, -115.589104, -199.258179, +81.854340 
1488855283.569021, 1488855283.569021, -2.012573, -0.671265, -1.507935, -115.589104, -199.258179, +81.854340 
1488855283.573008, 1488855283.573008, -2.012573, -0.671265, -1.507935, -115.589104, -199.258179, +70.135590 
1488855283.576959, 1488855283.576959, -2.012573, -0.671265, -1.507935, -143.802612, -202.859253, +70.425507 
1488855283.580903, 1488855283.580903, -2.864014, -0.364502, -1.446289, -143.802612, -202.859253, +70.425507 
1488855283.584900, 1488855283.584900, -2.864014, -0.364502, -1.446289, -159.107178, -217.187256, +75.476166 
1488855283.588844, 1488855283.588844, -2.864014, -0.364502, -1.446289, -159.107178, -217.187256, +75.476166 
1488855283.592792, 1488855283.592792, -2.864014, -0.364502, -1.446289, -159.107178, -217.187256, +75.476166 
1488855283.596742, 1488855283.596742, -2.864014, -0.364502, -1.446289, -145.908325, -214.684814, +79.367157 
1488855283.600685, 1488855283.600685, -2.221802, +0.065796, -1.330933, -145.908325, -214.684814, +79.367157 
1488855283.604668, 1488855283.604668, -2.221802, +0.065796, -1.330933, -145.908325, -214.684814, +79.367157 
1488855283.608622, 1488855283.608622, -2.221802, +0.065796, -1.330933, -133.609741, -210.610718, +82.037445 
1488855283.612566, 1488855283.612566, -2.221802, +0.065796, -1.330933, -133.609741, -210.610718, +82.037445 
1488855283.616528, 1488855283.616528, -2.221802, +0.065796, -1.330933, -133.609741, -210.610718, +85.943695 
1488855283.620679, 1488855283.620679, -2.192261, +0.352417, -1.284424, -133.808105, -204.156250, +85.348602 
1488855283.624934, 1488855283.624934, -2.192261, +0.352417, -1.284424, -133.808105, -204.156250, +85.348602 
1488855283.628878, 1488855283.628878, -2.192261, +0.352417, -1.284424, -143.253296, -178.567261, +87.835785 
1488855283.632824, 1488855283.632824, -2.192261, +0.352417, -1.284424, -143.253296, -178.567261, +87.835785 
1488855283.636784, 1488855283.636784, -2.192261, +0.352417, -1.284424, -143.253296, -178.567261, +87.835785 
1488855283.640731, 1488855283.640731, -2.403198, +0.896729, -0.240967, -171.054810, -149.926514, +76.132294 
1488855283.644694, 1488855283.644694, -2.403198, +0.896729, -0.240967, -171.054810, -149.926514, +76.132294 
1488855283.648644, 1488855283.648644, -2.403198, +0.896729, -0.240967, -171.054810, -149.926514, +76.132294 
1488855283.652588, 1488855283.652588, -2.403198, +0.896729, -0.240967, -158.252686, -168.023438, +76.467987 
1488855283.656369, 1488855283.656369, -2.403198, +0.896729, -0.240967, -158.252686, -168.023438, +76.467987 
1488855283.660115, 1488855283.660115, -2.136841, +0.365845, +0.148438, -158.252686, -168.023438, +76.467987 
1488855283.663881, 1488855283.663881, -2.136841, +0.365845, +0.148438, -111.331902, -193.887085, +71.554657 
1488855283.667736, 1488855283.667736, -2.136841, +0.365845, +0.148438, -111.331902, -193.887085, +71.554657 
1488855283.671476, 1488855283.671476, -2.136841, +0.365845, +0.148438, -111.331902, -221.230835, +29.928680 
1488855283.675365, 1488855283.675365, -2.136841, +0.365845, +0.148438, -95.844231, -221.947998, +29.928680 
1488855283.679113, 1488855283.679113, -1.102661, -0.093140, +1.460205, -95.844231, -221.947998, +29.928680 
1488855283.682874, 1488855283.682874, -1.102661, -0.093140, +1.460205, -11.692009, -236.733765, +14.502045 
1488855283.686903, 1488855283.686903, -1.102661, -0.093140, +1.460205, -11.692009, -236.733765, +14.502045 
1488855283.690843, 1488855283.690843, -1.102661, -0.093140, +1.460205, -11.692009, -236.733765, +14.502045 
1488855283.694797, 1488855283.694797, -1.102661, -0.093140, +1.460205, +97.454109, -167.794556, +11.465546 
1488855283.698748, 1488855283.698748, -0.261963, +0.617554, +0.552612, +97.454109, -167.794556, +11.465546 
1488855283.702692, 1488855283.702692, -0.261963, +0.617554, +0.552612, +97.454109, -167.794556, +11.465546 
1488855283.706457, 1488855283.706457, -0.261963, +0.617554, +0.552612, +143.108398, -117.425293, +11.511322 
1488855283.710208, 1488855283.710208, -0.261963, +0.617554, +0.552612, +143.108398, -117.425293, +11.511322 
1488855283.713965, 1488855283.713965, -0.261963, +0.617554, +0.552612, +143.108398, -117.425293, +11.511322 
1488855283.717712, 1488855283.717712, -0.261963, +0.617554, +0.503052, +152.477295, -84.267944, +13.098236 
1488855283.721464, 1488855283.721464, +0.365967, +0.892822, +0.503052, +152.477295, -84.267944, +13.098236 
1488855283.725349, 1488855283.725349, +0.365967, +0.892822, +0.503052, +152.477295, -84.267944, +13.098236 
1488855283.729297, 1488855283.729297, +0.365967, +0.892822, +0.503052, +156.429321, -42.748779, +6.826874 
1488855283.733279, 1488855283.733279, +0.365967, +0.892822, +0.503052, +156.429321, -42.748779, +6.826874 
1488855283.737228, 1488855283.737228, +0.365967, +0.892822, +0.034302, +152.523071, +5.865721, -1.046661 
1488855283.741259, 1488855283.741259, +0.646973, +0.496216, +0.049316, +152.843506, +5.865721, -1.046661 
1488855283.745395, 1488855283.745395, +0.646973, +0.496216, +0.049316, +152.843506, +5.865721, -1.046661 
1488855283.749341, 1488855283.749341, +0.646973, +0.496216, +0.049316, +144.313843, +42.990356, -9.652618 
1488855283.753290, 1488855283.753290, +0.646973, +0.496216, +0.049316, +144.313843, +42.990356, -9.652618 
1488855283.757039, 1488855283.757039, +0.646973, +0.496216, +0.049316, +144.313843, +42.990356, -9.652618 
1488855283.760787, 1488855283.760787, +0.715210, -0.046631, -0.514893, +128.032715, +71.692139, -23.766998 
1488855283.764620, 1488855283.764620, +0.715210, -0.046631, -0.514893, +128.032715, +71.692139, -23.766998 
1488855283.768572, 1488855283.768572, +0.715210, -0.046631, -0.514893, +128.032715, +71.692139, -23.766998 
1488855283.772521, 1488855283.772521, +0.715210, -0.046631, -0.514893, +109.569588, +103.094727, -42.428497 
1488855283.776341, 1488855283.776341, +0.715210, -0.046631, -0.514893, +109.569588, +103.094727, -42.428497 
1488855283.780091, 1488855283.780091, +0.816772, -0.096069, -0.679077, +109.569588, +103.094727, -69.772247 
1488855283.783885, 1488855283.783885, +0.816772, -0.096069, -0.679077, +82.332649, +138.617188, -68.566803 
1488855283.787638, 1488855283.787638, +0.816772, -0.096069, -0.679077, +82.332649, +138.617188, -68.566803 
1488855283.791395, 1488855283.791395, +0.816772, -0.096069, -0.679077, +82.332649, +162.726074, -96.963409 
1488855283.795313, 1488855283.795313, +0.816772, -0.096069, -0.679077, +48.412361, +162.726074, -96.963409 
1488855283.799066, 1488855283.799066, +0.519531, -0.195068, -0.443604, +48.412361, +162.726074, -96.963409 
1488855283.802820, 1488855283.802820, +0.519531, -0.195068, -0.443604, +23.082771, +175.604492, -119.790558 
1488855283.806671, 1488855283.806671, +0.519531, -0.195068, -0.443604, +23.082771, +175.604492, -119.790558 
1488855283.810422, 1488855283.810422, +0.519531, -0.195068, -0.443604, +23.082771, +175.604492, -119.790558 
1488855283.814397, 1488855283.814397, +0.519531, -0.195068, -0.443604, +20.275154, +188.116699, -137.795929 
1488855283.818365, 1488855283.818365, +0.314941, -0.511719, -0.425781, +20.275154, +188.116699, -137.795929 
1488855283.822119, 1488855283.822119, +0.314941, -0.511719, -0.425781, +20.275154, +188.116699, -137.795929 
1488855283.826152, 1488855283.826152, +0.314941, -0.511719, -0.425781, +33.824959, +201.712280, -150.826935 
1488855283.830313, 1488855283.830313, +0.314941, -0.511719, -0.425781, +33.824959, +201.712280, -150.826935 
1488855283.834101, 1488855283.834101, +0.314941, -0.511719, -0.425781, +33.824959, +201.712280, -150.826935 
1488855283.837853, 1488855283.837853, +0.090698, -0.547852, -0.482056, +53.356209, +213.751465, -159.463409 
1488855283.841595, 1488855283.841595, +0.090698, -0.547852, -0.482056, +53.356209, +213.751465, -159.463409 
1488855283.845392, 1488855283.845392, +0.090698, -0.547852, -0.482056, +53.356209, +213.751465, -163.369659 
1488855283.849133, 1488855283.849133, +0.090698, -0.547852, -0.482056, +71.361580, +228.811890, -163.461212 
1488855283.852885, 1488855283.852885, +0.090698, -0.547852, -0.482056, +71.361580, +228.811890, -163.461212 
1488855283.856646, 1488855283.856646, +0.090698, -0.547852, -0.677124, +71.361580, +228.811890, -162.118439 
1488855283.860390, 1488855283.860390, -0.105347, -0.291870, -0.677124, +86.269417, +245.703369, -162.118439 
1488855283.864148, 1488855283.864148, -0.105347, -0.291870, -0.677124, +86.269417, +245.703369, -162.118439 
1488855283.867898, 1488855283.867898, -0.105347, -0.291870, -0.677124, +97.988167, +261.511475, -158.242706 
1488855283.871648, 1488855283.871648, -0.105347, -0.291870, -0.677124, +99.498787, +261.511475, -158.242706 
1488855283.875539, 1488855283.875539, -0.105347, -0.291870, -0.677124, +99.498787, +261.511475, -158.242706 
1488855283.879302, 1488855283.879302, -0.321777, -0.049072, -0.690918, +102.748909, +274.954468, -155.618195 
1488855283.883114, 1488855283.883114, -0.321777, -0.049072, -0.690918, +102.748909, +274.954468, -155.618195 
1488855283.887073, 1488855283.887073, -0.321777, -0.049072, -0.690918, +102.748909, +274.954468, -155.618195 
1488855283.891023, 1488855283.891023, -0.321777, -0.049072, -0.690918, +97.347298, +284.979492, -154.916290 
1488855283.894889, 1488855283.894889, -0.321777, -0.049072, -0.690918, +97.347298, +284.979492, -154.916290 
1488855283.898646, 1488855283.898646, -0.478882, +0.086304, -0.576660, +97.347298, +284.979492, -154.916290 
1488855283.902395, 1488855283.902395, -0.478882, +0.086304, -0.576660, +87.780037, +294.211060, -155.984406 
1488855283.906357, 1488855283.906357, -0.478882, +0.086304, -0.576660, +87.780037, +294.211060, -155.984406 
1488855283.910303, 1488855283.910303, -0.478882, +0.086304, -0.576660, +87.780037, +294.211060, -155.984406 
1488855283.914296, 1488855283.914296, -0.478882, +0.086304, -0.576660, +75.786629, +303.732544, -156.594757 
1488855283.918246, 1488855283.918246, -0.648682, +0.201660, -0.379395, +75.786629, +303.732544, -156.594757 
1488855283.922195, 1488855283.922195, -0.648682, +0.201660, -0.379395, +75.786629, +312.811523, -154.992584 
1488855283.926061, 1488855283.926061, -0.648682, +0.201660, -0.379395, +66.021004, +312.811523, -154.992584 
1488855283.929810, 1488855283.929810, -0.648682, +0.201660, -0.379395, +66.021004, +312.811523, -154.992584 
1488855283.933662, 1488855283.933662, -0.648682, +0.201660, -0.379395, +60.009041, +324.087769, -152.139191 
1488855283.937413, 1488855283.937413, -0.819214, +0.246460, -0.314209, +60.009041, +324.087769, -152.139191 
1488855283.941364, 1488855283.941364, -0.819214, +0.246460, -0.314209, +60.009041, +324.087769, -152.139191 
1488855283.945116, 1488855283.945116, -0.819214, +0.246460, -0.314209, +56.713142, +337.393433, -149.499420 
1488855283.948860, 1488855283.948860, -0.819214, +0.246460, -0.314209, +56.713142, +337.393433, -149.499420 
1488855283.952603, 1488855283.952603, -0.819214, +0.246460, -0.314209, +56.713142, +337.393433, -149.499420 
1488855283.956491, 1488855283.956491, -1.225464, +0.297485, -0.412476, +57.735481, +355.932861, -144.906525 
1488855283.960245, 1488855283.960245, -1.236694, +0.297485, -0.412476, +57.735481, +355.932861, -144.906525 
1488855283.964045, 1488855283.964045, -1.236694, +0.297485, -0.412476, +57.735481, +355.932861, -144.906525 
1488855283.967786, 1488855283.967786, -1.236694, +0.297485, -0.412476, +67.165413, +375.525146, -137.383942 
1488855283.971534, 1488855283.971534, -1.236694, +0.297485, -0.412476, +67.165413, +375.525146, -137.383942 
1488855283.975284, 1488855283.975284, -1.236694, +0.297485, -0.412476, +67.165413, +375.525146, -137.383942 
1488855283.979026, 1488855283.979026, -2.237915, +0.344604, -0.317383, +70.674934, +385.672241, -139.031891 
1488855283.982771, 1488855283.982771, -2.237915, +0.344604, -0.317383, +70.674934, +385.672241, -139.031891 
1488855283.986687, 1488855283.986687, -2.237915, +0.344604, -0.317383, +70.674934, +385.672241, -139.031891 
1488855283.990439, 1488855283.990439, -2.237915, +0.344604, -0.317383, +64.418831, +384.665161, -146.432404 
1488855283.994346, 1488855283.994346, -2.237915, +0.344604, -0.317383, +64.418831, +384.665161, -146.432404 
1488855283.998099, 1488855283.998099, -3.689209, +0.728516, +0.285400, +64.418831, +384.665161, -146.111969 
1488855284.001852, 1488855284.001852, -3.689209, +0.728516, +0.285400, +72.460213, +371.237427, -146.111969 
1488855284.005741, 1488855284.005741, -3.689209, +0.728516, +0.285400, +72.460213, +371.237427, -146.111969 
1488855284.009690, 1488855284.009690, -3.689209, +0.728516, +0.285400, +111.629524, +340.078979, -140.405182 
1488855284.013681, 1488855284.013681, -3.689209, +0.728516, +0.285400, +111.629524, +340.078979, -140.405182 
1488855284.017631, 1488855284.017631, -3.999023, +1.029175, +0.686646, +111.629524, +340.078979, -140.405182 
1488855284.021575, 1488855284.021575, -3.999023, +1.029175, +0.686646, +153.759033, +281.622559, -142.098907 
1488855284.025542, 1488855284.025542, -3.999023, +1.029175, +0.686646, +153.759033, +281.622559, -142.098907 
1488855284.029479, 1488855284.029479, -3.999023, +1.029175, +0.686646, +153.759033, +281.622559, -142.098907 
1488855284.033484, 1488855284.033484, -3.999023, +1.029175, +0.686646, +161.968262, +218.695312, -130.593781 
1488855284.037439, 1488855284.037439, -2.972534, +2.663330, +0.914917, +161.968262, +218.695312, -130.593781 
1488855284.041386, 1488855284.041386, -2.972534, +2.663330, +0.914917, +161.968262, +218.695312, -67.468170 
1488855284.045238, 1488855284.045238, -2.972534, +2.663330, +0.914917, +170.238525, +169.241577, -67.468170 
1488855284.048993, 1488855284.048993, -2.972534, +2.663330, +0.914917, +170.238525, +169.241577, -67.468170 
1488855284.052872, 1488855284.052872, -2.972534, +2.663330, +0.914917, +154.949219, +121.954590, +12.854095 
1488855284.057146, 1488855284.057146, -3.207153, +2.687012, +2.477539, +154.949219, +121.954590, +12.854095 
1488855284.061091, 1488855284.061091, -3.207153, +2.687012, +2.477539, +154.949219, +121.954590, +12.854095 
1488855284.065076, 1488855284.065076, -3.207153, +2.687012, +2.477539, +68.798103, +29.623655, +60.629364 
1488855284.069020, 1488855284.069020, -3.207153, +2.687012, +2.477539, +68.798103, +29.623655, +60.629364 
1488855284.073002, 1488855284.073002, -3.207153, +2.687012, +2.477539, +68.798103, +29.623655, +60.629364 
1488855284.076946, 1488855284.076946, -2.495972, +0.482544, +0.572632, -7.511101, -67.056030, +83.548065 
1488855284.080893, 1488855284.080893, -2.495972, +0.482544, +0.572632, -7.511101, -67.056030, +83.548065 
1488855284.084788, 1488855284.084788, -2.495972, +0.482544, +0.572632, -7.511101, -67.056030, +83.548065 
1488855284.088542, 1488855284.088542, -2.495972, +0.482544, +0.572632, -12.805901, -123.055786, +59.500214 
1488855284.092293, 1488855284.092293, -2.495972, +0.482544, +0.572632, -12.805901, -123.055786, +59.500214 
1488855284.096053, 1488855284.096053, -1.068848, -3.331177, -3.615723, -12.805901, -123.055786, -33.105377 
1488855284.099803, 1488855284.099803, -1.068848, -3.331177, -3.615723, -5.374870, -53.765625, -33.105377 
1488855284.103764, 1488855284.103764, -1.068848, -3.331177, -3.615723, -5.374870, -53.765625, -33.105377 
1488855284.107516, 1488855284.107516, -1.068848, -3.331177, -3.615723, +6.343880, -61.364502, -13.497833 
1488855284.111257, 1488855284.111257, -1.068848, -3.331177, -3.615723, +5.062141, -61.364502, -13.497833 
1488855284.115229, 1488855284.115229, -1.068848, +1.334839, +2.271362, +5.062141, -61.364502, -13.497833 
1488855284.119169, 1488855284.119169, -3.633667, +1.334839, +2.271362, -87.757072, -230.187744, +45.263763 
1488855284.123126, 1488855284.123126, -3.633667, +1.334839, +2.271362, -87.757072, -230.187744, +45.263763 
1488855284.127070, 1488855284.127070, -3.633667, +1.334839, +2.271362, -87.757072, -230.187744, +45.263763 
1488855284.131076, 1488855284.131076, -3.633667, +1.334839, +2.271362, -179.965942, -278.695435, +76.467987 
1488855284.135037, 1488855284.135037, -3.633667, -0.127930, -1.454956, -179.965942, -278.695435, +76.467987 
1488855284.139751, 1488855284.139751, -1.144653, -0.127930, -1.454956, -179.965942, -278.695435, +93.710419 
1488855284.143733, 1488855284.143733, -1.144653, -0.127930, -1.454956, -155.750244, -176.247925, +93.710419 
1488855284.147472, 1488855284.147472, -1.144653, -0.127930, -1.454956, -155.750244, -176.247925, +93.710419 
1488855284.151224, 1488855284.151224, -1.144653, -0.127930, -1.454956, -138.812988, -102.624268, +170.309540 
1488855284.155019, 1488855284.155019, -1.144653, +0.452026, +0.136353, -138.812988, -102.624268, +170.309540 
1488855284.158774, 1488855284.158774, -2.124268, +0.452026, +0.136353, -138.812988, -102.624268, +170.309540 
1488855284.162520, 1488855284.162520, -2.124268, +0.452026, +0.136353, -10.669670, -97.573608, +224.264618 
1488855284.166271, 1488855284.166271, -2.124268, +0.452026, +0.136353, -10.669670, -97.573608, +224.264618 
1488855284.170013, 1488855284.170013, -2.124268, +0.452026, +0.136353, -10.669670, -97.573608, +224.264618 
1488855284.173762, 1488855284.173762, -2.124268, +0.452026, +0.136353, +109.859505, -104.516357, +162.695404 
1488855284.177511, 1488855284.177511, -1.187866, -0.334961, -0.213989, +109.859505, -104.516357, +162.695404 
1488855284.181257, 1488855284.181257, -1.187866, -0.334961, -0.213989, +109.859505, -104.516357, +162.695404 
1488855284.185160, 1488855284.185160, -1.187866, -0.334961, -0.213989, +168.224365, -129.586548, +114.279266 
1488855284.188907, 1488855284.188907, -1.187866, -0.334961, -0.213989, +168.224365, -129.586548, +114.279266 
1488855284.192658, 1488855284.192658, -1.187866, -0.334961, -0.213989, +168.224365, -129.586548, +114.279266 
1488855284.196538, 1488855284.196538, -0.878296, +1.616455, -0.733887, +161.113770, -163.934082, +120.932098 
1488855284.200295, 1488855284.200295, -0.878296, +1.616455, -0.733887, +161.113770, -163.934082, +120.932098 
1488855284.204133, 1488855284.204133, -0.878296, +1.616455, -0.733887, +161.113770, -163.934082, +120.932098 
1488855284.208078, 1488855284.208078, -0.878296, +1.616455, -0.733887, +81.432381, -165.627808, +82.266327 
1488855284.212022, 1488855284.212022, -0.878296, +1.616455, -0.733887, +81.432381, -165.627808, +82.266327 
1488855284.215979, 1488855284.215979, -0.673462, +0.550049, -0.065918, +81.432381, -153.909058, +38.794037 
1488855284.219930, 1488855284.219930, -0.673462, +0.550049, -0.065918, -15.384636, -156.518311, +38.794037 
1488855284.223886, 1488855284.223886, -0.673462, +0.550049, -0.065918, -15.384636, -156.518311, +38.794037 
1488855284.227838, 1488855284.227838, -0.673462, +0.550049, -0.065918, -56.949577, -138.268799, +28.250214 
1488855284.231791, 1488855284.231791, -0.673462, +0.550049, -0.065918, -56.949577, -138.268799, +28.250214 
1488855284.235744, 1488855284.235744, -1.038086, -0.146973, -0.090698, -56.949577, -138.268799, +28.250214 
1488855284.239701, 1488855284.239701, -1.038086, -0.146973, -0.090698, -27.042351, -117.028564, +38.626190 
1488855284.243693, 1488855284.243693, -1.038086, -0.146973, -0.090698, -27.042351, -117.028564, +38.626190 
1488855284.247451, 1488855284.247451, -1.038086, -0.146973, -0.090698, -27.042351, -117.028564, +38.626190 
1488855284.251418, 1488855284.251418, -1.038086, -0.146973, -0.090698, +15.422859, -97.024292, +43.280121 
1488855284.255723, 1488855284.255723, -1.223267, -0.040894, +0.002075, +15.422859, -97.024292, +43.280121 
1488855284.259679, 1488855284.259679, -1.223267, -0.040894, +0.002075, +15.422859, -82.177490, +44.058319 
1488855284.263673, 1488855284.263673, -1.223267, -0.040894, +0.002075, +15.316048, -82.177490, +44.058319 
1488855284.267626, 1488855284.267626, -1.223267, -0.040894, +0.002075, +15.316048, -82.177490, +44.058319 
1488855284.271567, 1488855284.271567, -1.223267, -0.040894, +0.002075, +12.111702, -76.287598, +45.874115 
1488855284.275525, 1488855284.275525, -1.289429, +0.048218, -0.172729, +12.111702, -76.287598, +45.874115 
1488855284.279462, 1488855284.279462, -1.289429, +0.048218, -0.172729, +12.111702, -76.287598, +45.874115 
1488855284.283399, 1488855284.283399, -1.289429, +0.048218, -0.172729, +15.667000, -67.117065, +45.080658 
1488855284.287152, 1488855284.287152, -1.289429, +0.048218, -0.172729, +15.667000, -67.117065, +45.080658 
1488855284.290897, 1488855284.290897, -1.289429, +0.048218, -0.172729, +15.667000, -67.117065, +45.080658 
1488855284.294659, 1488855284.294659, -1.329956, +0.597900, -0.490479, +11.577644, -52.697510, +44.867035 
1488855284.298408, 1488855284.298408, -1.329956, +0.597900, -0.490479, +11.577644, -52.697510, +44.867035 
1488855284.302167, 1488855284.302167, -1.329956, +0.597900, -0.490479, +11.577644, -52.697510, +44.867035 
1488855284.306074, 1488855284.306074, -1.329956, +0.597900, -0.490479, -3.269157, -49.584717, +37.344452 
1488855284.309830, 1488855284.309830, -1.329956, +0.597900, -0.490479, -3.269157, -49.584717, +37.344452 
1488855284.313627, 1488855284.313627, -1.329956, +0.506836, -0.287842, -3.269157, -49.584717, +25.183197 
1488855284.317579, 1488855284.317579, -0.618164, +0.506836, -0.287842, -13.935051, -47.997803, +25.183197 
1488855284.321528, 1488855284.321528, -0.618164, +0.506836, -0.287842, -13.935051, -47.997803, +25.183197 
1488855284.325489, 1488855284.325489, -0.618164, +0.506836, -0.287842, -8.197746, -40.673584, +17.889496 
1488855284.329435, 1488855284.329435, -0.618164, +0.506836, -0.287842, -8.197746, -40.673584, +17.889496 
1488855284.333389, 1488855284.333389, -0.618164, +0.131836, -0.097900, -8.197746, -40.673584, +17.889496 
1488855284.337342, 1488855284.337342, -1.023926, +0.128052, -0.097900, +9.899178, -32.220215, +20.117279 
1488855284.341286, 1488855284.341286, -1.023926, +0.128052, -0.097900, +9.899178, -32.220215, +20.117279 
1488855284.345165, 1488855284.345165, -1.023926, +0.128052, -0.097900, +9.899178, -32.220215, +20.117279 
1488855284.348921, 1488855284.348921, -1.023926, +0.128052, -0.097900, +20.076790, -24.346682, +23.870941 
1488855284.352670, 1488855284.352670, -1.023926, +0.128052, -0.191650, +20.076790, -24.346682, +23.870941 
1488855284.356617, 1488855284.356617, -1.358032, +0.370972, -0.215820, +20.076790, -24.346682, +23.870941 
1488855284.360569, 1488855284.360569, -1.358032, +0.370972, -0.215820, +2.132454, -21.310183, +21.887299 
1488855284.364532, 1488855284.364532, -1.358032, +0.370972, -0.215820, +2.132454, -21.310183, +21.887299 
1488855284.368473, 1488855284.368473, -1.358032, +0.370972, -0.215820, +2.132454, -26.009890, +17.462250 
1488855284.373030, 1488855284.373030, -1.358032, +0.152222, -0.338989, -21.030388, -26.009890, +17.462250 
1488855284.376989, 1488855284.376989, -1.307251, +0.151978, -0.338989, -21.030388, -26.009890, +17.462250 
1488855284.380932, 1488855284.380932, -1.307251, +0.151978, -0.338989, -32.489738, -32.220215, +16.470428 
1488855284.384899, 1488855284.384899, -1.307251, +0.151978, -0.338989, -32.489738, -32.220215, +16.470428 
1488855284.388853, 1488855284.388853, -1.307251, +0.151978, -0.338989, -32.489738, -32.220215, +16.470428 
1488855284.392798, 1488855284.392798, -1.307251, +0.058228, -0.515259, -38.516960, -42.764038, +22.573944 
1488855284.396568, 1488855284.396568, -1.009766, +0.045898, -0.515259, -38.516960, -42.764038, +22.573944 
1488855284.400436, 1488855284.400436, -1.009766, +0.045898, -0.515259, -38.516960, -42.764038, +22.573944 
1488855284.404242, 1488855284.404242, -1.009766, +0.045898, -0.515259, -40.698967, -52.926392, +28.540131 
1488855284.407986, 1488855284.407986, -1.009766, +0.045898, -0.515259, -40.698967, -52.926392, +28.540131 
1488855284.411744, 1488855284.411744, -1.009766, +0.045898, -0.515259, -40.698967, -52.926392, +35.238739 
1488855284.415519, 1488855284.415519, -1.093872, +0.200439, -0.570801, -39.813957, -63.226074, +35.238739 
1488855284.419281, 1488855284.419281, -1.093872, +0.200439, -0.570801, -39.813957, -63.226074, +35.238739 
1488855284.423171, 1488855284.423171, -1.093872, +0.200439, -0.570801, -39.813957, -70.504517, +40.396210 
1488855284.427070, 1488855284.427070, -1.093872, +0.200439, -0.570801, -39.112053, -70.504517, +40.396210 
1488855284.430966, 1488855284.430966, -1.093872, +0.200439, -0.570801, -39.112053, -70.504517, +40.396210 
1488855284.434912, 1488855284.434912, -1.229736, +0.489746, -0.557495, -44.879875, -75.921387, +44.378754 
1488855284.438860, 1488855284.438860, -1.229736, +0.489746, -0.557495, -44.879875, -75.921387, +44.378754 
1488855284.442939, 1488855284.442939, -1.229736, +0.489746, -0.557495, -44.879875, -75.921387, +44.378754 
1488855284.446896, 1488855284.446896, -1.229736, +0.489746, -0.557495, -54.553947, -79.400391, +43.554779 
1488855284.451493, 1488855284.451493, -1.229736, +0.489746, -0.557495, -54.553947, -79.400391, +43.554779 
1488855284.455313, 1488855284.455313, -1.309082, +0.281860, -0.405029, -54.553947, -79.400391, +41.128632 
1488855284.459062, 1488855284.459062, -1.309082, +0.281860, -0.405029, -68.729362, -82.284302, +41.128632 
1488855284.462807, 1488855284.462807, -1.309082, +0.281860, -0.405029, -68.729362, -82.284302, +41.128632 
1488855284.466567, 1488855284.466567, -1.309082, +0.281860, -0.405029, -68.729362, -86.190552, +39.831635 
1488855284.470308, 1488855284.470308, -1.309082, +0.281860, -0.405029, -75.504265, -84.573120, +39.831635 
1488855284.474079, 1488855284.474079, -1.243164, +0.154907, -0.082275, -75.504265, -84.573120, +39.831635 
1488855284.477822, 1488855284.477822, -1.243164, +0.154907, -0.082275, -75.504265, -89.150757, +39.221283 
1488855284.481561, 1488855284.481561, -1.243164, +0.154907, -0.082275, -76.114616, -89.150757, +39.221283 
1488855284.485311, 1488855284.485311, -1.243164, +0.154907, -0.082275, -76.114616, -89.150757, +39.221283 
1488855284.489055, 1488855284.489055, -1.243164, +0.154907, -0.082275, -70.728264, -93.377441, +37.100311 
1488855284.492799, 1488855284.492799, -1.194824, -0.024170, -0.064453, -70.728264, -93.377441, +37.100311 
1488855284.496690, 1488855284.496690, -1.194824, -0.024170, -0.064453, -70.728264, -93.377441, +37.100311 
1488855284.500443, 1488855284.500443, -1.194824, -0.024170, -0.064453, -55.347404, -98.031372, +39.022919 
1488855284.504401, 1488855284.504401, -1.194824, -0.024170, -0.064453, -55.347404, -98.031372, +39.022919 
1488855284.508349, 1488855284.508349, -1.194824, -0.024170, -0.064453, -55.347404, -98.031372, +39.022919 
1488855284.512298, 1488855284.512298, -1.194824, +0.124756, -0.199707, -41.538200, -105.355591, +42.715546 
1488855284.516299, 1488855284.516299, -1.352295, +0.124756, -0.199707, -41.538200, -105.355591, +42.715546 
1488855284.520256, 1488855284.520256, -1.352295, +0.124756, -0.199707, -41.538200, -105.355591, +42.715546 
1488855284.524213, 1488855284.524213, -1.352295, +0.124756, -0.199707, -32.764397, -116.143555, +46.942230 
1488855284.528156, 1488855284.528156, -1.352295, +0.124756, -0.199707, -32.764397, -116.143555, +46.942230 
1488855284.532105, 1488855284.532105, -1.352295, +0.121826, -0.661499, -28.858147, -126.778931, +50.543304 
1488855284.536101, 1488855284.536101, -1.508789, +0.121826, -0.661499, -30.765495, -126.778931, +50.543304 
1488855284.540037, 1488855284.540037, -1.508789, +0.121826, -0.661499, -30.765495, -126.778931, +50.543304 
1488855284.543955, 1488855284.543955, -1.508789, +0.121826, -0.661499, -25.379143, -137.490601, +59.423920 
1488855284.547819, 1488855284.547819, -1.508789, +0.121826, -0.661499, -25.379143, -137.490601, +59.423920 
1488855284.551571, 1488855284.551571, -1.508789, +0.121826, -0.996704, -25.379143, -137.490601, +59.423920 
1488855284.555366, 1488855284.555366, -1.818604, +0.163696, -0.996704, -30.902824, -149.102539, +68.594452 
1488855284.559140, 1488855284.559140, -1.818604, +0.163696, -0.996704, -30.902824, -149.102539, +68.594452 
1488855284.563404, 1488855284.563404, -1.818604, +0.163696, -0.996704, -30.902824, -149.102539, +68.594452 
1488855284.567355, 1488855284.567355, -1.818604, +0.163696, -0.996704, -49.228630, -158.944458, +73.828217 
1488855284.571296, 1488855284.571296, -1.818604, +0.163696, -0.864624, -49.228630, -158.944458, +73.828217 
1488855284.575294, 1488855284.575294, -1.908081, -0.094238, -0.864624, -49.228630, -170.663208, +77.383514 
1488855284.579243, 1488855284.579243, -1.908081, -0.094238, -0.864624, -69.980583, -170.388550, +77.383514 
1488855284.583243, 1488855284.583243, -1.908081, -0.094238, -0.864624, -69.980583, -170.388550, +77.383514 
1488855284.587191, 1488855284.587191, -1.908081, -0.094238, -0.864624, -87.985954, -183.785767, +80.358978 
