Calculating the offsets...
timestamp_before, timestamp_after, accel_x, accel_y, accel_z, gyro_x, gyro_y, gyro_z
1488855366.085862, 1488855366.085862, +0.103516, +0.028198, -0.540161, +174.048691, +54.361027, -6.069069 
1488855366.098283, 1488855366.098283, +0.103516, +0.028198, -0.540161, +174.048691, +54.361027, -6.069069 
1488855366.102321, 1488855366.102321, +0.103516, +0.028198, -0.540161, +189.322739, +89.563049, -27.248268 
1488855366.106322, 1488855366.106322, +0.103516, +0.028198, -0.540161, +189.322739, +89.563049, -27.248268 
1488855366.110269, 1488855366.110269, +0.219971, +0.354370, -0.459717, +189.322739, +89.563049, -47.481422 
1488855366.114705, 1488855366.114705, +0.219971, +0.354370, -0.459717, +167.456894, +122.430481, -47.481422 
1488855366.118468, 1488855366.118468, +0.219971, +0.354370, -0.459717, +167.456894, +122.430481, -47.481422 
1488855366.122214, 1488855366.122214, +0.219971, +0.354370, -0.459717, +117.057121, +150.369324, -69.866066 
1488855366.126016, 1488855366.126016, +0.219971, +0.354370, -0.459717, +117.057121, +150.369324, -69.866066 
1488855366.129764, 1488855366.129764, -0.047119, +0.359619, -0.296509, +117.057121, +150.369324, -69.866066 
1488855366.133510, 1488855366.133510, -0.047119, +0.359619, -0.296509, +54.831779, +172.036804, -94.722633 
1488855366.137252, 1488855366.137252, -0.047119, +0.359619, -0.296509, +54.831779, +172.036804, -94.722633 
1488855366.141001, 1488855366.141001, -0.047119, +0.359619, -0.296509, +54.831779, +172.036804, -94.722633 
1488855366.144809, 1488855366.144809, -0.047119, +0.359619, -0.296509, +10.306633, +191.842712, -114.055519 
1488855366.148551, 1488855366.148551, -0.047119, +0.359619, -0.273560, +10.306633, +191.842712, -114.055519 
1488855366.152301, 1488855366.152301, -0.076416, +0.150757, -0.273560, +10.306633, +191.842712, -114.055519 
1488855366.156051, 1488855366.156051, -0.076416, +0.150757, -0.273560, -4.982674, +212.686218, -124.416237 
1488855366.159792, 1488855366.159792, -0.076416, +0.150757, -0.273560, -4.982674, +212.686218, -124.416237 
1488855366.163658, 1488855366.163658, -0.076416, +0.150757, -0.273560, -4.982674, +212.686218, -124.416237 
1488855366.167415, 1488855366.167415, -0.076416, +0.150757, -0.273560, +2.906120, +233.926453, -130.992767 
1488855366.171167, 1488855366.171167, -0.152466, -0.151123, -0.282349, +2.906120, +233.926453, -130.992767 
1488855366.174948, 1488855366.174948, -0.152466, -0.151123, -0.282349, +2.906120, +233.926453, -130.992767 
1488855366.178699, 1488855366.178699, -0.152466, -0.151123, -0.282349, +18.042839, +252.069153, -138.606903 
1488855366.182453, 1488855366.182453, -0.152466, -0.151123, -0.282349, +18.042839, +252.069153, -138.606903 
1488855366.186383, 1488855366.186383, -0.152466, -0.151123, -0.282349, +18.042839, +252.069153, -146.419403 
1488855366.190332, 1488855366.190332, -0.466797, -0.135132, -0.306152, +29.685295, +266.610779, -147.197601 
1488855366.194292, 1488855366.194292, -0.466797, -0.135132, -0.306152, +29.685295, +266.610779, -147.197601 
1488855366.198233, 1488855366.198233, -0.466797, -0.135132, -0.306152, +33.728874, +277.734436, -153.926727 
1488855366.202185, 1488855366.202185, -0.466797, -0.135132, -0.306152, +33.728874, +277.734436, -153.926727 
1488855366.205989, 1488855366.205989, -0.466797, -0.135132, -0.306152, +33.728874, +277.734436, -153.926727 
1488855366.209741, 1488855366.209741, -0.646729, -0.203979, -0.372559, +38.291252, +289.727844, -158.458588 
1488855366.213592, 1488855366.213592, -0.646729, -0.203979, -0.372559, +38.291252, +289.727844, -158.458588 
1488855366.217337, 1488855366.217337, -0.646729, -0.203979, -0.372559, +38.291252, +289.727844, -158.458588 
1488855366.221094, 1488855366.221094, -0.646729, -0.203979, -0.372559, +41.053093, +300.058044, -160.228607 
1488855366.224865, 1488855366.224865, -0.646729, -0.203979, -0.372559, +41.053093, +300.058044, -160.228607 
1488855366.228609, 1488855366.228609, -0.646729, -0.002319, -0.531494, +41.053093, +300.058044, -160.228607 
1488855366.232426, 1488855366.232426, -0.706177, -0.002319, -0.531494, +44.699944, +310.876526, -158.977386 
1488855366.237152, 1488855366.237152, -0.706177, -0.002319, -0.531494, +44.699944, +310.876526, -158.977386 
1488855366.240903, 1488855366.240903, -0.706177, -0.002319, -0.531494, +44.699944, +310.876526, -155.071136 
1488855366.244657, 1488855366.244657, -0.706177, -0.002319, -0.531494, +51.337517, +325.585999, -156.185028 
1488855366.248407, 1488855366.248407, -0.706177, +0.175781, -0.663086, +51.337517, +325.585999, -156.185028 
1488855366.252149, 1488855366.252149, -0.968994, +0.175781, -0.663086, +51.337517, +345.117249, -154.201385 
1488855366.255953, 1488855366.255953, -0.968994, +0.175781, -0.663086, +55.991447, +342.996277, -154.201385 
1488855366.259697, 1488855366.259697, -0.968994, +0.175781, -0.663086, +55.991447, +342.996277, -154.201385 
1488855366.263583, 1488855366.263583, -0.968994, +0.175781, -0.663086, +59.897697, +364.816345, -149.639008 
1488855366.267331, 1488855366.267331, -0.968994, +0.175781, -0.663086, +58.692253, +364.816345, -149.639008 
1488855366.271069, 1488855366.271069, -1.430298, +0.276855, -0.689087, +58.692253, +364.816345, -149.639008 
1488855366.274946, 1488855366.274946, -1.430298, +0.276855, -0.689087, +57.349480, +386.865295, -143.764374 
1488855366.278696, 1488855366.278696, -1.430298, +0.276855, -0.689087, +57.349480, +386.865295, -143.764374 
1488855366.282450, 1488855366.282450, -1.430298, +0.276855, -0.689087, +57.349480, +386.865295, -143.764374 
1488855366.286354, 1488855366.286354, -1.430298, +0.276855, -0.689087, +58.890617, +401.651062, -133.663055 
1488855366.290102, 1488855366.290102, -2.243652, +0.434204, -0.541382, +58.890617, +401.651062, -133.663055 
1488855366.294038, 1488855366.294038, -2.243652, +0.434204, -0.541382, +58.890617, +401.651062, -133.663055 
1488855366.297990, 1488855366.297990, -2.243652, +0.434204, -0.541382, +70.304192, +405.908264, -117.687111 
1488855366.301941, 1488855366.301941, -2.243652, +0.434204, -0.541382, +70.304192, +405.908264, -117.687111 
1488855366.305900, 1488855366.305900, -2.243652, +0.434204, -0.541382, +70.304192, +405.908264, -117.687111 
1488855366.309845, 1488855366.309845, -2.871094, +0.351929, -0.204956, +90.766228, +402.261414, -103.526955 
1488855366.313794, 1488855366.313794, -2.871094, +0.351929, -0.204956, +90.766228, +402.261414, -103.526955 
1488855366.317744, 1488855366.317744, -2.871094, +0.351929, -0.204956, +90.766228, +390.054382, -91.625099 
1488855366.321687, 1488855366.321687, -2.871094, +0.351929, -0.204956, +121.009148, +390.054382, -91.625099 
1488855366.325503, 1488855366.325503, -2.871094, +0.351929, -0.204956, +121.009148, +390.054382, -91.625099 
1488855366.329254, 1488855366.329254, -3.237061, +0.784668, +0.036011, +162.513046, +366.967834, -81.767921 
1488855366.333037, 1488855366.333037, -3.237061, +0.784668, +0.036011, +162.513046, +366.967834, -81.767921 
1488855366.336975, 1488855366.336975, -3.237061, +0.784668, +0.036011, +162.513046, +366.967834, -81.767921 
1488855366.340920, 1488855366.340920, -3.237061, +0.784668, +0.036011, +193.915634, +330.972351, -77.312355 
1488855366.344884, 1488855366.344884, -3.237061, +0.784668, +0.036011, +193.915634, +330.972351, -77.312355 
1488855366.348829, 1488855366.348829, -3.335571, +1.658813, +0.630859, +193.915634, +330.972351, -77.312355 
1488855366.352864, 1488855366.352864, -3.335571, +1.658813, +0.630859, +204.810410, +284.097351, -71.681862 
1488855366.356821, 1488855366.356821, -3.335571, +1.658813, +0.630859, +204.810410, +284.097351, -71.681862 
1488855366.360766, 1488855366.360766, -3.335571, +1.658813, +0.630859, +204.810410, +284.097351, -54.530983 
1488855366.364733, 1488855366.364733, -3.335571, +1.658813, +0.630859, +202.658920, +238.153137, -54.530983 
1488855366.368680, 1488855366.368680, -3.219238, +1.992920, +2.088013, +202.658920, +238.153137, -54.530983 
1488855366.372618, 1488855366.372618, -3.219238, +1.992920, +2.088013, +176.017075, +187.875427, -26.775246 
1488855366.376402, 1488855366.376402, -3.219238, +1.992920, +2.088013, +176.017075, +187.875427, -26.775246 
1488855366.380154, 1488855366.380154, -3.219238, +1.992920, +2.088013, +176.017075, +187.875427, -26.775246 
1488855366.384022, 1488855366.384022, -3.219238, +1.992920, +2.088013, +132.437973, +99.054016, +8.808250 
1488855366.387771, 1488855366.387771, -2.957153, +2.357422, +3.011597, +132.437973, +99.054016, +8.808250 
1488855366.391523, 1488855366.391523, -2.957153, +2.357422, +3.011597, +132.437973, +99.054016, +8.808250 
1488855366.395364, 1488855366.395364, -2.957153, +2.357422, +3.011597, +96.732414, -3.530821, +52.906151 
1488855366.399122, 1488855366.399122, -2.957153, +2.357422, +3.011597, +96.732414, -3.530821, +52.906151 
1488855366.402872, 1488855366.402872, -2.957153, +2.357422, +3.011597, +96.732414, -3.530821, +52.906151 
1488855366.406899, 1488855366.406899, -2.957153, +2.482422, +1.465332, +67.862785, -72.103821, +92.304344 
1488855366.410822, 1488855366.410822, -2.266968, +2.471680, +1.465332, +67.862785, -72.103821, +92.304344 
1488855366.414744, 1488855366.414744, -2.266968, +2.471680, +1.465332, +67.862785, -72.103821, +92.304344 
1488855366.418666, 1488855366.418666, -2.266968, +2.471680, +1.465332, -7.363045, -124.700867, +104.847069 
1488855366.422578, 1488855366.422578, -2.266968, +2.471680, +1.465332, -7.363045, -124.700867, +104.847069 
1488855366.426354, 1488855366.426354, -2.266968, +2.471680, -2.690918, -7.363045, -124.700867, +82.645531 
1488855366.430101, 1488855366.430101, -0.176270, -1.921021, -2.705444, -52.956306, -152.410828, +82.645531 
1488855366.433969, 1488855366.433969, -0.176270, -1.921021, -2.705444, -52.956306, -152.410828, +82.645531 
1488855366.437916, 1488855366.437916, -0.176270, -1.921021, -2.705444, -69.847786, -79.153381, -5.596046 
1488855366.441870, 1488855366.441870, -0.176270, -1.921021, -2.705444, -69.847786, -79.153381, -5.596046 
1488855366.445816, 1488855366.445816, -0.176270, -1.921021, -2.705444, -69.847786, -79.153381, -5.596046 
1488855366.449814, 1488855366.449814, -2.799316, -1.672974, -0.539185, -52.727425, -30.874571, -31.398659 
1488855366.454002, 1488855366.454002, -2.799316, -1.672974, -0.539185, -52.727425, -30.874571, -31.398659 
1488855366.457946, 1488855366.457946, -2.799316, -1.672974, -0.539185, -52.727425, -30.874571, -31.398659 
1488855366.461889, 1488855366.461889, -2.799316, -1.672974, -0.539185, -25.688850, -143.225037, +6.580467 
1488855366.465831, 1488855366.465831, -2.799316, -1.672974, +1.304565, -25.688850, -143.225037, +6.580467 
1488855366.469772, 1488855366.469772, -3.282837, +0.963135, +1.291138, -25.688850, -143.225037, +45.627708 
1488855366.473701, 1488855366.473701, -3.282837, +0.963135, +1.291138, -72.792732, -248.770081, +45.627708 
1488855366.477448, 1488855366.477448, -3.282837, +0.963135, +1.291138, -72.792732, -248.770081, +45.627708 
1488855366.481198, 1488855366.481198, -3.282837, +0.963135, +1.291138, -104.042732, -186.025940, +92.243309 
1488855366.484996, 1488855366.484996, -3.282837, +0.963135, +1.291138, -104.820930, -186.025940, +92.243309 
1488855366.488749, 1488855366.488749, -1.486694, -0.733398, -0.506836, -104.820930, -186.025940, +92.243309 
1488855366.492503, 1488855366.492503, -1.486694, -0.733398, -0.506836, -98.854744, -111.334167, +107.212181 
1488855366.496256, 1488855366.496256, -1.486694, -0.733398, -0.506836, -98.854744, -111.334167, +107.212181 
1488855366.500012, 1488855366.500012, -1.486694, -0.733398, -0.506836, -98.854744, -111.334167, +107.212181 
1488855366.503805, 1488855366.503805, -1.486694, -0.733398, -0.506836, -41.054451, -114.477478, +155.033234 
1488855366.507568, 1488855366.507568, -1.314941, +0.618652, +0.027100, -41.054451, -114.477478, +155.033234 
1488855366.511322, 1488855366.511322, -1.314941, +0.618652, +0.027100, -41.054451, -114.477478, +155.033234 
1488855366.515163, 1488855366.515163, -1.314941, +0.618652, +0.027100, +74.073112, -87.820374, +198.536041 
1488855366.518913, 1488855366.518913, -1.314941, +0.618652, +0.027100, +74.073112, -87.820374, +198.536041 
1488855366.522664, 1488855366.522664, -1.314941, +0.618652, +0.027100, +74.073112, -87.820374, +198.536041 
1488855366.526623, 1488855366.526623, -1.590332, +0.575073, +0.311401, +148.535995, -64.062439, +160.389069 
1488855366.530673, 1488855366.530673, -1.590332, +0.575073, +0.311401, +148.535995, -64.062439, +160.389069 
1488855366.534620, 1488855366.534620, -1.590332, +0.575073, +0.311401, +148.535995, -64.062439, +160.389069 
1488855366.538559, 1488855366.538559, -1.590332, +0.575073, +0.311401, +129.081039, -91.970764, +100.544090 
1488855366.542505, 1488855366.542505, -1.590332, +0.575073, +0.311401, +129.081039, -91.970764, +100.544090 
1488855366.546499, 1488855366.546499, -0.638306, +1.051025, -0.077515, +78.299797, -103.216492, +63.114281 
1488855366.550442, 1488855366.550442, -0.638306, +1.051025, -0.077515, +78.543938, -103.216492, +63.114281 
1488855366.554395, 1488855366.554395, -0.638306, +1.051025, -0.077515, +78.543938, -103.216492, +63.114281 
1488855366.558342, 1488855366.558342, -0.638306, +1.051025, -0.077515, +48.545158, -85.974060, +40.577049 
1488855366.562284, 1488855366.562284, -0.638306, +1.051025, -0.077515, +48.545158, -85.974060, +40.577049 
1488855366.566094, 1488855366.566094, -1.388306, +0.793701, -0.270020, +48.545158, -85.974060, +40.577049 
1488855366.570021, 1488855366.570021, -1.399170, +0.793701, -0.270020, +2.631462, -87.210022, +16.071434 
1488855366.574121, 1488855366.574121, -1.399170, +0.793701, -0.270020, +2.631462, -87.210022, +16.071434 
1488855366.578064, 1488855366.578064, -1.399170, +0.793701, -0.270020, +2.631462, -87.210022, +16.071434 
1488855366.582001, 1488855366.582001, -1.399170, +0.793701, -0.270020, -13.848030, -93.405090, +2.704735 
1488855366.585953, 1488855366.585953, -1.336670, -0.087769, +0.005737, -13.848030, -93.405090, +2.704735 
1488855366.589904, 1488855366.589904, -1.317749, -0.087769, +0.005737, -13.848030, -85.882507, -1.293068 
1488855366.593896, 1488855366.593896, -1.317749, -0.087769, +0.005737, -20.485603, -85.882507, -1.293068 
1488855366.597839, 1488855366.597839, -1.317749, -0.087769, +0.005737, -20.485603, -85.882507, -1.293068 
1488855366.601780, 1488855366.601780, -1.317749, -0.087769, +0.005737, -22.576057, -75.308167, +7.145042 
1488855366.605605, 1488855366.605605, -1.317749, -0.215820, -0.461792, -22.576057, -75.308167, +7.145042 
1488855366.609350, 1488855366.609350, -0.936523, -0.215820, -0.461792, -22.576057, -75.308167, +7.145042 
1488855366.613092, 1488855366.613092, -0.936523, -0.215820, -0.461792, -4.769051, -57.043392, +19.245262 
1488855366.616844, 1488855366.616844, -0.936523, -0.215820, -0.461792, -4.769051, -57.043392, +19.245262 
1488855366.620593, 1488855366.620593, -0.936523, -0.215820, -0.461792, -4.769051, -57.043392, +19.245262 
1488855366.624397, 1488855366.624397, -0.936523, -0.215820, -0.461792, -1.579964, -49.749691, +29.575462 
1488855366.628143, 1488855366.628143, -1.209473, +0.110107, -0.510864, -1.579964, -49.749691, +29.575462 
1488855366.631889, 1488855366.631889, -1.209473, +0.110107, -0.510864, -1.579964, -49.749691, +29.575462 
1488855366.635868, 1488855366.635868, -1.209473, +0.110107, -0.510864, +6.018913, -48.178036, +25.119896 
1488855366.639816, 1488855366.639816, -1.209473, +0.110107, -0.510864, +6.018913, -48.178036, +25.119896 
1488855366.643767, 1488855366.643767, -1.209473, +0.110107, -0.510864, +6.018913, -48.178036, +23.288841 
1488855366.647709, 1488855366.647709, -1.112793, +0.213989, -0.406006, +8.521355, -51.473934, +23.288841 
1488855366.651650, 1488855366.651650, -1.112793, +0.213989, -0.406006, +8.521355, -51.473934, +23.288841 
1488855366.655598, 1488855366.655598, -1.112793, +0.213989, -0.406006, +8.734978, -49.444515, +21.686668 
1488855366.659534, 1488855366.659534, -1.112793, +0.213989, -0.406006, +8.734978, -49.444515, +21.686668 
1488855366.663464, 1488855366.663464, -1.112793, +0.213989, -0.406006, +8.734978, -49.444515, +21.686668 
1488855366.667211, 1488855366.667211, -0.701416, +0.135986, -0.489136, +18.760002, -42.333920, +29.438133 
1488855366.670957, 1488855366.670957, -0.701416, +0.135986, -0.489136, +18.760002, -42.333920, +29.438133 
1488855366.674800, 1488855366.674800, -0.701416, +0.135986, -0.489136, +18.760002, -42.333920, +29.438133 
1488855366.678853, 1488855366.678853, -0.701416, +0.135986, -0.489136, +33.469475, -33.453304, +33.634300 
1488855366.682796, 1488855366.682796, -0.701416, +0.135986, -0.489136, +33.469475, -33.453304, +33.634300 
1488855366.686759, 1488855366.686759, -1.035400, +0.368530, -0.447632, +33.469475, -33.453304, +33.634300 
1488855366.690871, 1488855366.690871, -1.035400, +0.368530, -0.447632, +18.500603, -36.672909, +27.668114 
1488855366.694961, 1488855366.694961, -1.035400, +0.368530, -0.447632, +18.500603, -36.672909, +27.668114 
1488855366.698910, 1488855366.698910, -1.035400, +0.368530, -0.447632, -1.030648, -43.264706, +23.700829 
1488855366.702852, 1488855366.702852, -1.035400, +0.368530, -0.447632, -1.778328, -43.264706, +23.700829 
1488855366.706805, 1488855366.706805, -1.154907, +0.175415, -0.293945, -1.778328, -43.264706, +23.700829 
1488855366.710751, 1488855366.710751, -1.154907, +0.175415, -0.293945, -8.446419, -46.835262, +26.401634 
1488855366.714626, 1488855366.714626, -1.154907, +0.175415, -0.293945, -8.446419, -46.835262, +26.401634 
1488855366.718382, 1488855366.718382, -1.154907, +0.175415, -0.293945, -8.446419, -46.835262, +26.401634 
1488855366.722130, 1488855366.722130, -1.154907, +0.175415, -0.293945, -19.478523, -50.299007, +27.622337 
1488855366.725885, 1488855366.725885, -1.034912, +0.227295, -0.246948, -19.478523, -50.299007, +27.622337 
1488855366.729633, 1488855366.729633, -1.034912, +0.227295, -0.246948, -19.478523, -50.299007, +27.622337 
1488855366.733388, 1488855366.733388, -1.034912, +0.227295, -0.246948, -32.738411, -60.476620, +27.927513 
1488855366.737135, 1488855366.737135, -1.034912, +0.227295, -0.246948, -32.738411, -60.476620, +27.927513 
1488855366.740891, 1488855366.740891, -1.034912, +0.227295, -0.246948, -32.738411, -60.476620, +27.927513 
1488855366.744756, 1488855366.744756, -1.066162, +0.152954, -0.384521, -35.210335, -65.771423, +27.607079 
1488855366.748516, 1488855366.748516, -1.088501, +0.152954, -0.384521, -35.210335, -65.771423, +27.607079 
1488855366.752271, 1488855366.752271, -1.088501, +0.152954, -0.384521, -35.210335, -65.771423, +27.607079 
1488855366.756266, 1488855366.756266, -1.088501, +0.152954, -0.384521, -28.221809, -67.755066, +33.283348 
1488855366.760216, 1488855366.760216, -1.088501, +0.152954, -0.384521, -28.221809, -67.755066, +33.283348 
1488855366.764123, 1488855366.764123, -1.088501, +0.371704, -0.359497, -28.221809, -67.755066, +33.039207 
1488855366.767869, 1488855366.767869, -1.219360, +0.349731, -0.359497, -28.404915, -67.541443, +33.039207 
1488855366.771616, 1488855366.771616, -1.219360, +0.349731, -0.359497, -28.404915, -67.541443, +33.039207 
1488855366.775522, 1488855366.775522, -1.219360, +0.349731, -0.359497, -30.144417, -65.481506, +30.658836 
1488855366.779468, 1488855366.779468, -1.219360, +0.349731, -0.359497, -30.144417, -65.481506, +30.658836 
1488855366.783411, 1488855366.783411, -1.219360, +0.349731, -0.234497, -30.144417, -65.481506, +30.658836 
1488855366.787354, 1488855366.787354, -1.398560, +0.315796, -0.219971, -35.332405, -64.962708, +26.889915 
1488855366.791298, 1488855366.791298, -1.398560, +0.315796, -0.219971, -35.332405, -64.962708, +26.889915 
1488855366.795301, 1488855366.795301, -1.398560, +0.315796, -0.219971, -35.332405, -64.962708, +26.889915 
1488855366.799258, 1488855366.799258, -1.398560, +0.315796, -0.219971, -45.647346, -68.502747, +24.723167 
1488855366.803243, 1488855366.803243, -1.398560, +0.315796, -0.157471, -45.647346, -68.502747, +24.723167 
1488855366.807133, 1488855366.807133, -1.300781, -0.012451, -0.170166, -45.647346, -68.502747, +23.380394 
1488855366.811173, 1488855366.811173, -1.300781, -0.012451, -0.170166, -55.901253, -74.911438, +23.380394 
1488855366.815268, 1488855366.815268, -1.300781, -0.012451, -0.170166, -55.901253, -74.911438, +23.380394 
1488855366.819104, 1488855366.819104, -1.300781, -0.012451, -0.170166, -52.040779, -83.242737, +25.776024 
1488855366.822858, 1488855366.822858, -1.300781, -0.012451, -0.170166, -52.040779, -83.242737, +25.776024 
1488855366.826754, 1488855366.826754, -1.174927, -0.141968, -0.089600, -52.040779, -83.242737, +25.776024 
1488855366.830812, 1488855366.830812, -1.174927, -0.141968, -0.089600, -36.568367, -90.490662, +31.299706 
1488855366.834766, 1488855366.834766, -1.174927, -0.141968, -0.089600, -36.568367, -90.490662, +31.299706 
1488855366.838713, 1488855366.838713, -1.174927, -0.141968, -0.089600, -36.568367, -90.490662, +31.299706 
1488855366.842655, 1488855366.842655, -1.174927, -0.141968, -0.089600, -17.800056, -96.670471, +36.686058 
1488855366.846438, 1488855366.846438, -1.429321, +0.216919, -0.278076, -17.800056, -96.670471, +36.686058 
1488855366.850187, 1488855366.850187, -1.429321, +0.216919, -0.278076, -17.800056, -96.670471, +36.686058 
1488855366.853940, 1488855366.853940, -1.429321, +0.216919, -0.278076, -7.546151, -102.789246, +39.783592 
1488855366.857689, 1488855366.857689, -1.429321, +0.216919, -0.278076, -7.546151, -102.789246, +39.783592 
1488855366.861442, 1488855366.861442, -1.429321, +0.216919, -0.278076, -7.546151, -102.789246, +43.689842 
1488855366.865335, 1488855366.865335, -1.772339, +0.450562, -0.564453, -7.866585, -110.678040, +43.399925 
1488855366.869083, 1488855366.869083, -1.772339, +0.450562, -0.564453, -7.866585, -110.678040, +43.399925 
1488855366.872834, 1488855366.872834, -1.772339, +0.450562, -0.564453, -20.424568, -121.008240, +47.779198 
1488855366.878474, 1488855366.878474, -1.772339, +0.450562, -0.564453, -20.424568, -121.008240, +47.779198 
1488855366.883489, 1488855366.883489, -1.772339, +0.216675, -0.739746, -20.424568, -121.008240, +51.502342 
1488855366.887447, 1488855366.887447, -1.982422, +0.216675, -0.739746, -31.166756, -131.384216, +51.502342 
1488855366.891391, 1488855366.891391, -1.982422, +0.216675, -0.739746, -31.166756, -131.384216, +51.502342 
1488855366.895352, 1488855366.895352, -1.982422, +0.216675, -0.739746, -42.565071, -140.981995, +55.240746 
1488855366.899300, 1488855366.899300, -1.982422, +0.216675, -0.739746, -42.565071, -140.981995, +55.240746 
1488855366.903284, 1488855366.903284, -1.982422, +0.025391, -0.700806, -42.565071, -140.981995, +55.240746 
1488855366.907236, 1488855366.907236, -2.015015, +0.025391, -0.700806, -54.070198, -152.136169, +58.567162 
1488855366.911181, 1488855366.911181, -2.015015, +0.025391, -0.700806, -54.070198, -152.136169, +58.567162 
1488855366.915145, 1488855366.915145, -2.015015, +0.025391, -0.700806, -54.070198, -152.136169, +58.567162 
1488855366.919086, 1488855366.919086, -2.015015, +0.025391, -0.700806, -68.627083, -164.724670, +63.175316 
1488855366.923040, 1488855366.923040, -2.015015, -0.031494, -0.823730, -68.627083, -164.724670, +63.175316 
1488855366.926995, 1488855366.926995, -1.928345, -0.031494, -0.823730, -68.627083, -164.724670, +66.867943 
1488855366.931147, 1488855366.931147, -1.928345, -0.031494, -0.823730, -87.624275, -176.824890, +66.867943 
1488855366.935239, 1488855366.935239, -1.928345, -0.031494, -0.823730, -87.624275, -176.824890, +66.867943 
1488855366.939183, 1488855366.939183, -1.928345, -0.031494, -0.823730, -113.381111, -183.981262, +66.059227 
1488855366.943130, 1488855366.943130, -1.897095, -0.681885, -1.447876, -113.381111, -183.981262, +66.059227 
1488855366.947081, 1488855366.947081, -1.894287, -0.681885, -1.447876, -113.381111, -183.981262, +66.059227 
1488855366.951030, 1488855366.951030, -1.894287, -0.681885, -1.447876, -134.972305, -186.498962, +54.630394 
1488855366.954995, 1488855366.954995, -1.894287, -0.681885, -1.447876, -134.972305, -186.498962, +54.630394 
1488855366.958941, 1488855366.958941, -1.894287, -0.681885, -1.447876, -134.972305, -186.498962, +54.630394 
1488855366.962889, 1488855366.962889, -1.894287, -0.536499, -1.518311, -139.076920, -197.332703, +54.706688 
1488855366.966639, 1488855366.966639, -2.596069, -0.536499, -1.518311, -139.076920, -197.332703, +54.706688 
1488855366.970393, 1488855366.970393, -2.596069, -0.536499, -1.518311, -139.076920, -197.332703, +62.519188 
1488855366.974154, 1488855366.974154, -2.596069, -0.536499, -1.518311, -134.285660, -204.122864, +64.106102 
1488855366.977909, 1488855366.977909, -2.596069, -0.536499, -1.518311, -134.285660, -204.122864, +64.106102 
1488855366.981802, 1488855366.981802, -2.596069, -0.536499, -1.518311, -134.285660, -199.896179, +69.736595 
1488855366.985715, 1488855366.985715, -2.252075, -0.527832, -1.185059, -122.795784, -199.896179, +69.736595 
1488855366.989466, 1488855366.989466, -2.252075, -0.527832, -1.185059, -122.795784, -199.896179, +69.736595 
1488855366.993380, 1488855366.993380, -2.252075, -0.527832, -1.185059, -124.306404, -196.508728, +65.021629 
1488855366.997325, 1488855366.997325, -2.252075, -0.527832, -1.185059, -124.306404, -196.508728, +65.021629 
1488855367.001265, 1488855367.001265, -2.252075, -0.527832, -1.185059, -124.306404, -196.508728, +65.021629 
1488855367.005220, 1488855367.005220, -1.797607, +0.259277, -1.536011, -150.002213, -180.548035, +41.645164 
1488855367.009162, 1488855367.009162, -1.797607, +0.259277, -1.536011, -150.002213, -180.548035, +41.645164 
1488855367.013117, 1488855367.013117, -1.797607, +0.259277, -1.536011, -150.002213, -180.548035, +41.645164 
1488855367.016871, 1488855367.016871, -1.797607, +0.259277, -1.536011, -187.889786, -141.180359, +23.059959 
1488855367.020616, 1488855367.020616, -1.797607, +0.259277, -1.536011, -187.889786, -141.180359, +23.059959 
1488855367.024484, 1488855367.024484, -1.647583, +0.132202, -0.925049, -187.889786, -141.180359, +23.059959 
1488855367.028424, 1488855367.028424, -1.647583, +0.132202, -0.925049, -195.442886, -109.869324, +8.747215 
1488855367.032371, 1488855367.032371, -1.647583, +0.132202, -0.925049, -195.442886, -109.869324, +8.747215 
1488855367.036334, 1488855367.036334, -1.647583, +0.132202, -0.925049, -195.442886, -107.260071, +16.193504 
1488855367.040286, 1488855367.040286, -1.647583, +0.132202, -0.925049, -151.619644, -107.260071, +16.193504 
1488855367.044280, 1488855367.044280, -1.848877, +1.034546, +0.392578, -151.619644, -107.260071, +16.193504 
1488855367.048220, 1488855367.048220, -1.848877, +1.034546, +0.392578, -105.644905, -131.033264, +41.874046 
1488855367.052186, 1488855367.052186, -1.848877, +1.034546, +0.392578, -105.644905, -131.033264, +41.874046 
1488855367.056057, 1488855367.056057, -1.848877, +1.034546, +0.392578, -105.644905, -131.033264, +41.874046 
1488855367.060655, 1488855367.060655, -1.848877, +1.034546, +0.392578, -76.454842, -167.669617, +13.416405 
1488855367.064477, 1488855367.064477, -0.478760, +0.043457, +0.937256, -76.454842, -167.669617, +13.416405 
1488855367.068222, 1488855367.068222, -0.478760, +0.043457, +0.937256, -76.454842, -167.669617, +13.416405 
1488855367.071970, 1488855367.071970, -0.478760, +0.043457, +0.937256, -12.016975, -134.970032, -27.339821 
1488855367.075766, 1488855367.075766, -0.478760, +0.043457, +0.937256, -12.016975, -134.970032, -27.339821 
1488855367.079510, 1488855367.079510, -0.478760, +0.043457, +0.937256, -12.016975, -134.970032, -24.516945 
1488855367.083296, 1488855367.083296, -0.239624, -0.116333, -0.276123, +53.580559, -32.980282, -24.516945 
1488855367.087044, 1488855367.087044, -0.239624, -0.116333, -0.276123, +53.580559, -32.980282, -24.516945 
1488855367.090786, 1488855367.090786, -0.239624, -0.116333, -0.276123, +53.580559, +15.420595, -7.610207 
1488855367.094534, 1488855367.094534, -0.239624, -0.116333, -0.276123, +100.608147, +15.420595, -7.610207 
1488855367.098282, 1488855367.098282, -0.239624, -0.116333, -0.276123, +100.608147, +15.420595, -7.610207 
1488855367.102030, 1488855367.102030, -0.052124, -0.231323, -0.533691, +146.384506, +40.933292, -7.961159 
1488855367.105929, 1488855367.105929, -0.054443, -0.231323, -0.533691, +146.384506, +40.933292, -7.961159 
1488855367.109678, 1488855367.109678, -0.054443, -0.231323, -0.533691, +146.384506, +40.933292, -7.961159 
1488855367.113596, 1488855367.113596, -0.054443, -0.231323, -0.533691, +174.201279, +78.408875, -26.500587 
1488855367.117541, 1488855367.117541, -0.054443, -0.231323, -0.533691, +174.201279, +78.408875, -26.500587 
1488855367.121490, 1488855367.121490, -0.054443, +0.323608, -0.446777, +174.201279, +78.408875, -26.500587 
1488855367.125600, 1488855367.125600, +0.351929, +0.323608, -0.446777, +165.595322, +117.669739, -46.001320 
1488855367.129547, 1488855367.129547, +0.351929, +0.323608, -0.446777, +165.595322, +117.669739, -46.001320 
1488855367.133507, 1488855367.133507, +0.351929, +0.323608, -0.446777, +165.595322, +117.669739, -46.001320 
1488855367.137455, 1488855367.137455, +0.351929, +0.323608, -0.446777, +118.781364, +149.606384, -66.127663 
1488855367.141406, 1488855367.141406, +0.351929, +0.389526, -0.300781, +118.781364, +149.606384, -66.127663 
1488855367.145368, 1488855367.145368, +0.107788, +0.389526, -0.300781, +56.281364, +173.440613, -88.786964 
1488855367.149313, 1488855367.149313, +0.107788, +0.389526, -0.300781, +53.336418, +173.440613, -88.786964 
1488855367.153264, 1488855367.153264, +0.107788, +0.389526, -0.300781, +53.336418, +173.440613, -88.786964 
1488855367.157017, 1488855367.157017, +0.107788, +0.389526, -0.300781, +8.658684, +194.421448, -105.312233 
1488855367.160767, 1488855367.160767, +0.107788, +0.389526, -0.295288, +8.658684, +194.421448, -105.312233 
1488855367.164519, 1488855367.164519, +0.011597, +0.129761, -0.295288, +8.658684, +194.421448, -105.312233 
1488855367.168265, 1488855367.168265, +0.011597, +0.129761, -0.295288, -0.725472, +217.950500, -112.254982 
1488855367.172193, 1488855367.172193, +0.011597, +0.129761, -0.295288, -0.725472, +217.950500, -112.254982 
1488855367.176554, 1488855367.176554, +0.011597, +0.129761, -0.295288, -0.725472, +217.950500, -112.254982 
1488855367.180502, 1488855367.180502, +0.011597, +0.129761, -0.303589, +13.419426, +241.082825, -114.528542 
1488855367.184485, 1488855367.184485, -0.052002, -0.146973, -0.303589, +13.419426, +241.082825, -114.528542 
1488855367.188431, 1488855367.188431, -0.052002, -0.146973, -0.303589, +13.419426, +241.082825, -120.265846 
1488855367.192383, 1488855367.192383, -0.052002, -0.146973, -0.303589, +32.264030, +260.171570, -120.265846 
1488855367.196340, 1488855367.196340, -0.052002, -0.146973, -0.303589, +32.264030, +260.171570, -120.265846 
1488855367.200290, 1488855367.200290, -0.052002, -0.146973, -0.428589, +44.516838, +275.964417, -128.459808 
1488855367.204229, 1488855367.204229, -0.386719, -0.176392, -0.429565, +44.516838, +275.964417, -128.459808 
1488855367.207983, 1488855367.207983, -0.386719, -0.176392, -0.429565, +44.516838, +275.964417, -128.459808 
1488855367.211729, 1488855367.211729, -0.386719, -0.176392, -0.429565, +50.406731, +290.918030, -134.166595 
1488855367.215491, 1488855367.215491, -0.386719, -0.176392, -0.429565, +50.406731, +290.918030, -134.166595 
1488855367.219243, 1488855367.219243, -0.386719, -0.176392, -0.429565, +50.406731, +290.918030, -134.166595 
1488855367.223129, 1488855367.223129, -0.657593, -0.210083, -0.409302, +52.298820, +303.674377, -137.019989 
1488855367.226887, 1488855367.226887, -0.657593, -0.210083, -0.409302, +52.298820, +303.674377, -137.019989 
1488855367.230640, 1488855367.230640, -0.657593, -0.210083, -0.409302, +52.298820, +303.674377, -137.019989 
1488855367.234604, 1488855367.234604, -0.657593, -0.210083, -0.409302, +48.636711, +312.448181, -140.666840 
1488855367.238548, 1488855367.238548, -0.657593, -0.210083, -0.409302, +48.636711, +312.448181, -140.666840 
1488855367.242500, 1488855367.242500, -0.707520, -0.043579, -0.459473, +48.636711, +312.448181, -140.666840 
1488855367.246453, 1488855367.246453, -0.707520, -0.043579, -0.459473, +51.245964, +321.206726, -141.109344 
1488855367.250398, 1488855367.250398, -0.707520, -0.043579, -0.459473, +51.245964, +321.206726, -141.109344 
1488855367.254301, 1488855367.254301, -0.707520, -0.043579, -0.459473, +59.058464, +334.970154, -140.178558 
1488855367.258055, 1488855367.258055, -0.707520, -0.043579, -0.459473, +57.669914, +334.970154, -140.178558 
1488855367.261812, 1488855367.261812, -0.981812, +0.110474, -0.546631, +57.669914, +334.970154, -140.178558 
1488855367.265742, 1488855367.265742, -0.981812, +0.110474, -0.546631, +60.385979, +352.182068, -141.490814 
1488855367.269695, 1488855367.269695, -0.981812, +0.110474, -0.546631, +60.385979, +352.182068, -141.490814 
1488855367.273795, 1488855367.273795, -0.981812, +0.110474, -0.546631, +60.385979, +352.182068, -141.490814 
1488855367.277742, 1488855367.277742, -0.981812, +0.110474, -0.546631, +58.799065, +370.294250, -143.947479 
1488855367.281693, 1488855367.281693, -1.455811, +0.248535, -0.619507, +58.799065, +370.294250, -143.947479 
1488855367.285567, 1488855367.285567, -1.455811, +0.248535, -0.619507, +58.799065, +370.294250, -143.947479 
1488855367.289361, 1488855367.289361, -1.455811, +0.248535, -0.619507, +54.465569, +384.439148, -142.803070 
1488855367.293128, 1488855367.293128, -1.455811, +0.248535, -0.619507, +54.465569, +384.439148, -142.803070 
1488855367.296870, 1488855367.296870, -1.455811, +0.248535, -0.619507, +54.465569, +384.439148, -134.990570 
1488855367.300990, 1488855367.300990, -2.041504, +0.375732, -0.682861, +52.741325, +393.884338, -135.982391 
1488855367.304814, 1488855367.304814, -2.041504, +0.375732, -0.682861, +52.741325, +393.884338, -135.982391 
1488855367.308553, 1488855367.308553, -2.041504, +0.375732, -0.682861, +52.741325, +402.948059, -126.491432 
1488855367.312305, 1488855367.312305, -2.041504, +0.375732, -0.682861, +57.944572, +402.948059, -126.491432 
1488855367.316055, 1488855367.316055, -2.041504, +0.375732, -0.682861, +57.944572, +402.948059, -126.491432 
1488855367.319796, 1488855367.319796, -2.041504, +0.469482, -0.556396, +74.485100, +406.762756, -118.434792 
1488855367.323547, 1488855367.323547, -2.898926, +0.486572, -0.556396, +74.485100, +406.762756, -118.434792 
1488855367.327687, 1488855367.327687, -2.898926, +0.486572, -0.556396, +74.485100, +406.762756, -118.434792 
1488855367.331443, 1488855367.331443, -2.898926, +0.486572, -0.556396, +99.280632, +396.234192, -112.209206 
1488855367.335225, 1488855367.335225, -2.898926, +0.486572, -0.556396, +99.280632, +396.234192, -112.209206 
1488855367.338972, 1488855367.338972, -2.898926, +0.486572, -0.556396, +99.280632, +396.234192, -112.209206 
1488855367.342716, 1488855367.342716, -3.506714, +0.781738, -0.007935, +128.516464, +369.149841, -106.227760 
1488855367.346725, 1488855367.346725, -3.506714, +0.781738, -0.007935, +128.516464, +369.149841, -106.227760 
1488855367.350677, 1488855367.350677, -3.506714, +0.781738, -0.007935, +128.516464, +369.149841, -106.227760 
1488855367.354552, 1488855367.354552, -3.506714, +0.781738, -0.007935, +155.646591, +329.751648, -98.201637 
1488855367.358311, 1488855367.358311, -3.506714, +0.781738, -0.007935, +155.646591, +329.751648, -98.201637 
1488855367.362063, 1488855367.362063, -3.383423, +1.071777, +0.903198, +155.646591, +329.751648, -98.201637 
1488855367.365830, 1488855367.365830, -3.383423, +1.071777, +0.903198, +177.665024, +281.076111, -79.021339 
1488855367.369577, 1488855367.369577, -3.383423, +1.071777, +0.903198, +177.665024, +281.076111, -79.021339 
1488855367.373536, 1488855367.373536, -3.383423, +1.071777, +0.903198, +177.665024, +281.076111, -41.683083 
1488855367.377299, 1488855367.377299, -3.383423, +1.071777, +0.903198, +193.534164, +231.591858, -41.683083 
1488855367.381052, 1488855367.381052, -3.275635, +2.293335, +2.657837, +193.534164, +231.591858, -41.683083 
1488855367.385055, 1488855367.385055, -3.275635, +2.293335, +2.657837, +199.485092, +162.484802, +4.673119 
1488855367.388998, 1488855367.388998, -3.275635, +2.293335, +2.657837, +199.485092, +162.484802, +4.673119 
1488855367.392944, 1488855367.392944, -3.275635, +2.293335, +2.657837, +199.485092, +162.484802, +4.673119 
1488855367.396933, 1488855367.396933, -3.275635, +2.293335, +2.657837, +158.637314, +57.016056, +32.184715 
1488855367.400880, 1488855367.400880, -2.375977, +2.434814, +2.788574, +158.637314, +57.016056, +32.184715 
1488855367.404777, 1488855367.404777, -2.375977, +2.434814, +2.788574, +158.637314, +57.016056, +32.184715 
1488855367.408524, 1488855367.408524, -2.375977, +2.434814, +2.788574, +79.596794, -30.828794, +56.751366 
1488855367.412281, 1488855367.412281, -2.375977, +2.434814, +2.788574, +79.596794, -30.828794, +56.751366 
1488855367.416037, 1488855367.416037, -2.375977, +2.434814, +2.788574, +79.596794, -30.828794, +56.751366 
1488855367.419905, 1488855367.419905, -2.015747, +2.579224, +1.342896, +20.911491, -79.946838, +82.645531 
1488855367.423762, 1488855367.423762, -2.015747, +2.579224, +1.342896, +20.911491, -79.946838, +82.645531 
1488855367.427665, 1488855367.427665, -2.015747, +2.579224, +1.342896, +20.911491, -79.946838, +86.551781 
1488855367.431546, 1488855367.431546, -2.015747, +2.579224, +1.342896, -46.639168, -130.010925, +84.842796 
1488855367.435616, 1488855367.435616, -2.015747, +2.579224, +1.342896, -46.639168, -130.010925, +84.842796 
1488855367.439733, 1488855367.439733, -0.099609, -3.074097, -3.386230, -89.592659, -133.062683, +40.409203 
1488855367.444083, 1488855367.444083, -0.099609, -3.074097, -3.386230, -89.592659, -133.062683, +40.409203 
1488855367.448039, 1488855367.448039, -0.099609, -3.074097, -3.386230, -89.592659, -133.062683, +40.409203 
1488855367.451982, 1488855367.451982, -0.099609, -3.074097, -3.386230, -95.619881, -52.175838, -37.975197 
1488855367.455800, 1488855367.455800, -0.099609, -3.074097, -3.386230, -95.619881, -52.175838, -37.975197 
1488855367.459552, 1488855367.459552, -3.749023, -0.421997, +1.172363, -95.619881, -52.175838, -37.975197 
1488855367.463338, 1488855367.463338, -3.749023, -0.421997, +1.172363, -75.920784, -81.274353, -21.465187 
1488855367.467288, 1488855367.467288, -3.749023, -0.421997, +1.172363, -75.920784, -81.274353, -21.465187 
1488855367.471235, 1488855367.471235, -3.749023, -0.421997, +1.172363, -75.920784, -81.274353, +37.128563 
1488855367.475096, 1488855367.475096, -3.749023, -0.421997, +1.172363, -74.623787, -232.366882, +35.755272 
1488855367.478846, 1488855367.478846, -3.749023, +0.096802, -0.544067, -74.623787, -232.366882, +35.755272 
1488855367.482599, 1488855367.482599, -2.732666, +0.096802, -0.544067, -74.623787, -251.898132, +72.818871 
1488855367.486378, 1488855367.486378, -2.732666, +0.096802, -0.544067, -112.892830, -252.477966, +72.818871 
1488855367.490133, 1488855367.490133, -2.732666, +0.096802, -0.544067, -112.892830, -252.477966, +72.818871 
1488855367.494013, 1488855367.494013, -2.732666, +0.096802, -0.544067, -111.412727, -163.381897, +79.639549 
1488855367.497764, 1488855367.497764, -2.732666, +0.096802, -0.544067, -111.412727, -163.381897, +79.639549 
1488855367.501516, 1488855367.501516, -1.707153, +0.165894, +0.485229, -111.412727, -163.381897, +79.639549 
1488855367.505391, 1488855367.505391, -1.707153, +0.165894, +0.485229, -59.761726, -138.494812, +155.277374 
1488855367.509149, 1488855367.509149, -1.707153, +0.165894, +0.485229, -59.761726, -138.494812, +155.277374 
1488855367.512893, 1488855367.512893, -1.707153, +0.165894, +0.485229, -59.761726, -138.494812, +155.277374 
1488855367.516847, 1488855367.516847, -1.707153, +0.165894, +0.485229, +59.745110, -139.852844, +217.884186 
1488855367.520795, 1488855367.520795, -1.596191, +0.058350, +0.523071, +59.745110, -139.852844, +217.884186 
1488855367.524757, 1488855367.524757, -1.596191, +0.058350, +0.523071, +59.745110, -139.852844, +217.884186 
1488855367.528713, 1488855367.528713, -1.596191, +0.058350, +0.523071, +109.656609, -125.891052, +166.401031 
1488855367.532666, 1488855367.532666, -1.596191, +0.058350, +0.523071, +109.656609, -125.891052, +166.401031 
1488855367.536447, 1488855367.536447, -1.596191, +0.058350, +0.523071, +109.656609, -125.891052, +166.401031 
1488855367.540190, 1488855367.540190, -1.001953, +0.886230, +0.088623, +139.151840, -141.683899, +105.701561 
1488855367.544096, 1488855367.544096, -1.001953, +0.886230, +0.088623, +139.151840, -141.683899, +105.701561 
1488855367.547844, 1488855367.547844, -1.001953, +0.886230, +0.088623, +139.151840, -141.683899, +87.879295 
1488855367.551597, 1488855367.551597, -1.001953, +0.886230, +0.088623, +137.091904, -144.476257, +87.879295 
1488855367.555409, 1488855367.555409, -1.001953, +0.886230, +0.088623, +137.091904, -144.476257, +87.879295 
1488855367.559363, 1488855367.559363, -0.623291, +1.106445, -0.216187, +71.372307, -126.486145, +58.933372 
1488855367.563688, 1488855367.563688, -0.623291, +1.106445, -0.216187, +71.372307, -126.486145, +58.933372 
1488855367.567634, 1488855367.567634, -0.623291, +1.106445, -0.216187, +71.372307, -126.486145, +58.933372 
1488855367.571590, 1488855367.571590, -0.623291, +1.106445, -0.216187, -7.622445, -107.946716, +32.123680 
1488855367.575542, 1488855367.575542, -0.623291, +1.106445, -0.216187, -7.622445, -107.946716, +32.123680 
1488855367.579490, 1488855367.579490, -1.113892, +0.243164, +0.013184, -7.622445, -107.946716, +32.123680 
1488855367.583492, 1488855367.583492, -1.113892, +0.243164, +0.013184, -28.221809, -98.562561, +22.907372 
1488855367.587437, 1488855367.587437, -1.113892, +0.243164, +0.013184, -28.221809, -98.562561, +22.907372 
1488855367.591385, 1488855367.591385, -1.113892, +0.243164, +0.013184, -28.221809, -79.031311, +24.570580 
1488855367.595231, 1488855367.595231, -1.113892, +0.243164, +0.013184, +5.072868, -79.931580, +24.570580 
1488855367.598979, 1488855367.598979, -1.086914, +0.146973, -0.182373, +5.072868, -79.931580, +24.570580 
1488855367.602724, 1488855367.602724, -1.086914, +0.146973, -0.182373, +12.885368, -62.048275, +23.731346 
1488855367.606539, 1488855367.606539, -1.086914, +0.146973, -0.182373, +12.671745, -62.048275, +23.731346 
1488855367.610296, 1488855367.610296, -1.086914, +0.146973, -0.182373, +12.671745, -62.048275, +23.731346 
1488855367.614180, 1488855367.614180, -1.086914, +0.146973, -0.182373, +12.458122, -43.279964, +22.617455 
1488855367.617935, 1488855367.617935, -1.368164, +0.451660, -0.134521, +12.458122, -43.279964, +22.617455 
1488855367.621678, 1488855367.621678, -1.356567, +0.451660, -0.134521, +12.458122, -43.279964, +22.617455 
1488855367.625655, 1488855367.625655, -1.356567, +0.451660, -0.134521, +0.998771, -42.303402, +16.620750 
1488855367.629600, 1488855367.629600, -1.356567, +0.451660, -0.134521, +0.998771, -42.303402, +16.620750 
1488855367.633542, 1488855367.633542, -1.356567, +0.451660, -0.134521, +0.998771, -42.303402, +16.620750 
1488855367.637289, 1488855367.637289, -1.356567, +0.045410, -0.161377, -6.951058, -42.105038, +8.899803 
1488855367.641042, 1488855367.641042, -1.248657, +0.050049, -0.161377, -6.951058, -42.105038, +8.899803 
1488855367.644922, 1488855367.644922, -1.248657, +0.050049, -0.161377, -6.951058, -42.105038, +8.899803 
1488855367.648865, 1488855367.648865, -1.248657, +0.050049, -0.161377, -2.480233, -39.968807, +12.790794 
1488855367.652814, 1488855367.652814, -1.248657, +0.050049, -0.161377, -2.480233, -39.968807, +12.790794 
1488855367.656769, 1488855367.656769, -1.248657, +0.050049, -0.415283, -2.480233, -32.156307, +15.674706 
1488855367.660713, 1488855367.660713, -1.197510, +0.323486, -0.415283, -1.518929, -32.186825, +15.674706 
1488855367.664710, 1488855367.664710, -1.197510, +0.323486, -0.415283, -1.518929, -32.186825, +15.674706 
1488855367.668657, 1488855367.668657, -1.197510, +0.323486, -0.415283, -9.514534, -27.777037, +17.414207 
1488855367.672608, 1488855367.672608, -1.197510, +0.323486, -0.415283, -9.514534, -27.777037, +17.414207 
1488855367.676563, 1488855367.676563, -1.197510, +0.323486, -0.415283, -9.514534, -27.777037, +17.414207 
1488855367.680578, 1488855367.680578, -0.892334, +0.302368, -0.406738, -11.238777, -25.427183, +12.226219 
1488855367.684546, 1488855367.684546, -0.892334, +0.302368, -0.406738, -11.238777, -25.427183, +12.226219 
1488855367.688451, 1488855367.688451, -0.892334, +0.302368, -0.406738, -11.238777, -25.427183, +12.226219 
1488855367.692212, 1488855367.692212, -0.892334, +0.302368, -0.406738, -10.719978, -25.701841, +9.800072 
1488855367.696142, 1488855367.696142, -0.892334, +0.302368, -0.406738, -10.719978, -25.701841, +9.800072 
1488855367.700090, 1488855367.700090, -0.927979, +0.153076, -0.128174, -10.719978, -25.701841, +11.127586 
1488855367.704082, 1488855367.704082, -0.927979, +0.153076, -0.128174, -6.340706, -23.687681, +11.127586 
1488855367.708031, 1488855367.708031, -0.927979, +0.153076, -0.128174, -6.340706, -23.687681, +11.127586 
1488855367.711978, 1488855367.711978, -0.927979, +0.153076, -0.128174, -3.777230, -21.047911, +12.638206 
1488855367.715900, 1488855367.715900, -0.927979, +0.153076, -0.128174, -3.777230, -21.047911, +12.638206 
1488855367.719651, 1488855367.719651, -1.118774, +0.199463, -0.087402, -3.777230, -21.047911, +12.638206 
1488855367.723452, 1488855367.723452, -1.118774, +0.199463, -0.087402, -4.433358, -21.871885, +13.599510 
1488855367.727201, 1488855367.727201, -1.118774, +0.199463, -0.087402, -4.433358, -21.871885, +13.599510 
1488855367.730951, 1488855367.730951, -1.118774, +0.199463, -0.087402, -4.433358, -21.871885, +13.599510 
1488855367.734799, 1488855367.734799, -1.118774, +0.199463, -0.087402, -12.184822, -24.816832, +12.531395 
1488855367.738556, 1488855367.738556, -1.175171, +0.292358, -0.088745, -12.184822, -24.816832, +12.531395 
1488855367.742306, 1488855367.742306, -1.175171, +0.292358, -0.088745, -12.184822, -24.816832, +12.531395 
1488855367.746436, 1488855367.746436, -1.175171, +0.292358, -0.088745, -18.822395, -27.777037, +11.661644 
1488855367.750387, 1488855367.750387, -1.175171, +0.292358, -0.088745, -18.822395, -27.777037, +11.661644 
1488855367.754345, 1488855367.754345, -1.175171, +0.292358, -0.088745, -18.822395, -27.777037, +11.661644 
1488855367.758288, 1488855367.758288, -1.036255, +0.241943, -0.196289, -20.378792, -29.974302, +10.318871 
1488855367.762238, 1488855367.762238, -1.036255, +0.241943, -0.196289, -20.378792, -29.974302, +10.318871 
1488855367.766196, 1488855367.766196, -1.036255, +0.241943, -0.196289, -21.813118, -34.780819, +11.966820 
1488855367.770150, 1488855367.770150, -1.036255, +0.241943, -0.196289, -21.813118, -34.780819, +11.966820 
1488855367.774053, 1488855367.774053, -1.036255, +0.241943, -0.196289, -21.813118, -34.780819, +11.966820 
1488855367.777804, 1488855367.777804, -1.132568, +0.185547, -0.253296, -20.577156, -37.878353, +13.553734 
1488855367.781554, 1488855367.781554, -1.132568, +0.185547, -0.253296, -20.577156, -37.878353, +13.553734 
1488855367.785516, 1488855367.785516, -1.132568, +0.185547, -0.253296, -20.577156, -37.878353, +13.553734 
1488855367.789468, 1488855367.789468, -1.132568, +0.185547, -0.253296, -18.669807, -44.027645, +18.238182 
1488855367.793419, 1488855367.793419, -1.132568, +0.185547, -0.253296, -18.669807, -44.027645, +18.238182 
1488855367.797368, 1488855367.797368, -1.256836, +0.294434, -0.268677, -18.669807, -44.027645, +18.238182 
1488855367.801503, 1488855367.801503, -1.256836, +0.294434, -0.268677, -20.760262, -50.192196, +18.650169 
1488855367.805891, 1488855367.805891, -1.256836, +0.294434, -0.268677, -20.760262, -50.192196, +18.650169 
1488855367.809848, 1488855367.809848, -1.256836, +0.294434, -0.268677, -27.291023, -59.851009, +21.671410 
1488855367.813795, 1488855367.813795, -1.256836, +0.294434, -0.268677, -27.291023, -59.851009, +21.671410 
1488855367.817751, 1488855367.817751, -1.269287, +0.026611, -0.431641, -27.291023, -59.851009, +21.671410 
1488855367.821695, 1488855367.821695, -1.269287, +0.026611, -0.431641, -29.564583, -70.211731, +25.104637 
1488855367.825687, 1488855367.825687, -1.269287, +0.026611, -0.431641, -29.564583, -70.211731, +25.104637 
1488855367.829632, 1488855367.829632, -1.269287, +0.026611, -0.431641, -29.564583, -70.211731, +25.104637 
1488855367.833574, 1488855367.833574, -1.269287, +0.026611, -0.431641, -26.497566, -79.794250, +32.581444 
1488855367.837330, 1488855367.837330, -1.252930, +0.067627, -0.314209, -26.497566, -79.794250, +32.581444 
1488855367.841087, 1488855367.841087, -1.252930, +0.067627, -0.314209, -26.497566, -79.794250, +32.581444 
1488855367.844851, 1488855367.844851, -1.252930, +0.067627, -0.314209, -24.407112, -86.859070, +37.159081 
1488855367.848604, 1488855367.848604, -1.252930, +0.067627, -0.314209, -24.407112, -86.859070, +37.159081 
1488855367.852361, 1488855367.852361, -1.252930, +0.067627, -0.314209, -24.407112, -86.859070, +40.744896 
1488855367.856266, 1488855367.856266, -1.356445, +0.208740, -0.181274, -21.904671, -95.098816, +40.744896 
1488855367.860019, 1488855367.860019, -1.356445, +0.208740, -0.181274, -21.904671, -95.098816, +40.744896 
1488855367.863933, 1488855367.863933, -1.356445, +0.208740, -0.181274, -17.998421, -104.254089, +40.287132 
1488855367.867885, 1488855367.867885, -1.356445, +0.208740, -0.181274, -17.906868, -104.254089, +40.287132 
1488855367.871838, 1488855367.871838, -1.356445, +0.208740, -0.181274, -17.906868, -104.254089, +40.287132 
1488855367.875799, 1488855367.875799, -1.668945, +0.397705, -0.461914, -11.772835, -110.647522, +42.514915 
1488855367.879755, 1488855367.879755, -1.678223, +0.397705, -0.461914, -11.772835, -110.647522, +42.514915 
1488855367.883689, 1488855367.883689, -1.678223, +0.397705, -0.461914, -11.772835, -110.647522, +42.514915 
1488855367.887445, 1488855367.887445, -1.678223, +0.397705, -0.461914, -22.621834, -118.749939, +45.795555 
1488855367.891201, 1488855367.891201, -1.678223, +0.397705, -0.461914, -22.621834, -118.749939, +45.795555 
1488855367.895107, 1488855367.895107, -1.678223, +0.397705, -0.491089, -22.621834, -118.749939, +45.795555 
1488855367.899057, 1488855367.899057, -2.014282, +0.065308, -0.491089, -31.594002, -131.109558, +49.503441 
1488855367.903021, 1488855367.903021, -2.014282, +0.065308, -0.491089, -31.594002, -131.109558, +49.503441 
1488855367.906776, 1488855367.906776, -2.014282, +0.065308, -0.491089, -31.594002, -131.109558, +53.409691 
1488855367.910524, 1488855367.910524, -2.014282, +0.065308, -0.491089, -33.257210, -145.300232, +55.088158 
1488855367.914288, 1488855367.914288, -2.014282, +0.065308, -0.491089, -33.257210, -145.300232, +55.088158 
1488855367.918037, 1488855367.918037, -2.044312, -0.069458, -0.730591, -33.257210, -157.018982, +61.771507 
1488855367.921960, 1488855367.921960, -2.044312, -0.069458, -0.730591, -33.867561, -157.125793, +61.771507 
1488855367.926174, 1488855367.926174, -2.044312, -0.069458, -0.730591, -33.867561, -157.125793, +61.771507 
1488855367.929924, 1488855367.929924, -2.044312, -0.069458, -0.730591, -42.168343, -167.974792, +68.363304 
1488855367.933721, 1488855367.933721, -2.044312, -0.069458, -0.730591, -42.168343, -167.974792, +68.363304 
1488855367.937471, 1488855367.937471, -2.193359, +0.246826, -0.905762, -42.168343, -167.974792, +68.363304 
1488855367.941226, 1488855367.941226, -2.193359, +0.246826, -0.905762, -62.035286, -180.136047, +76.282616 
1488855367.945023, 1488855367.945023, -2.193359, +0.246826, -0.905762, -62.035286, -180.136047, +76.282616 
1488855367.948771, 1488855367.948771, -2.193359, +0.246826, -0.905762, -62.035286, -180.136047, +76.282616 
1488855367.952524, 1488855367.952524, -2.193359, +0.246826, -0.905762, -96.520149, -189.001404, +82.111473 
1488855367.956325, 1488855367.956325, -2.150269, -0.285034, -1.688477, -96.520149, -189.001404, +82.111473 
1488855367.960074, 1488855367.960074, -2.150269, -0.285034, -1.688477, -96.520149, -189.001404, +82.111473 
1488855367.963868, 1488855367.963868, -2.150269, -0.285034, -1.688477, -141.884537, -191.488586, +73.322411 
1488855367.967622, 1488855367.967622, -2.150269, -0.285034, -1.688477, -141.884537, -191.488586, +73.322411 
1488855367.971364, 1488855367.971364, -2.150269, -0.285034, -1.688477, -141.884537, -191.488586, +73.322411 
1488855367.975171, 1488855367.975171, -3.056519, -0.225098, -1.513794, -166.115494, -196.447693, +61.618919 
1488855367.978929, 1488855367.978929, -3.052246, -0.225098, -1.513794, -166.115494, -196.447693, +61.618919 
1488855367.982692, 1488855367.982692, -3.052246, -0.225098, -1.513794, -166.115494, -196.447693, +61.618919 
1488855367.986494, 1488855367.986494, -3.052246, -0.225098, -1.513794, -177.330704, -202.719055, +64.823265 
1488855367.990248, 1488855367.990248, -3.052246, -0.225098, -1.513794, -177.330704, -202.719055, +64.823265 
1488855367.994114, 1488855367.994114, -3.052246, -0.225098, -1.482544, -177.330704, -202.719055, +57.712669 
1488855367.998064, 1488855367.998064, -2.211792, -0.510620, -1.491821, -183.953018, -196.066223, +57.712669 
1488855368.002014, 1488855368.002014, -2.211792, -0.510620, -1.491821, -183.953018, -196.066223, +57.712669 
1488855368.005977, 1488855368.005977, -2.211792, -0.510620, -1.491821, -191.002579, -191.000305, +47.489281 
1488855368.010044, 1488855368.010044, -2.211792, -0.510620, -1.491821, -191.002579, -191.000305, +47.489281 
1488855368.014002, 1488855368.014002, -2.211792, -0.510620, -1.132812, -191.002579, -191.000305, +47.489281 
1488855368.017954, 1488855368.017954, -2.062500, -0.023682, -1.132812, -195.290298, -178.106628, +43.140526 
1488855368.021905, 1488855368.021905, -2.062500, -0.023682, -1.132812, -195.290298, -178.106628, +43.140526 
1488855368.025901, 1488855368.025901, -2.062500, -0.023682, -1.132812, -195.290298, -178.106628, +43.140526 
1488855368.029850, 1488855368.029850, -2.062500, -0.023682, -1.132812, -205.300064, -147.604309, +49.289818 
1488855368.033788, 1488855368.033788, -2.062500, -0.023682, -0.882812, -205.300064, -147.604309, +49.289818 
1488855368.037544, 1488855368.037544, -1.734253, +0.398926, -0.878540, -205.300064, -147.604309, +46.573753 
1488855368.041510, 1488855368.041510, -1.734253, +0.398926, -0.878540, -209.847183, -115.804993, +46.573753 
1488855368.045732, 1488855368.045732, -1.734253, +0.398926, -0.878540, -209.847183, -115.804993, +46.573753 
1488855368.049694, 1488855368.049694, -1.734253, +0.398926, -0.878540, -147.209854, -103.933655, +48.221703 
1488855368.053683, 1488855368.053683, -1.734253, +0.398926, -0.385986, -147.209854, -103.933655, +48.221703 
1488855368.057634, 1488855368.057634, -1.467041, +0.514771, -0.385986, -147.209854, -103.933655, +48.221703 
1488855368.061587, 1488855368.061587, -1.467041, +0.514771, -0.385986, -83.870613, -104.574524, +43.644066 
1488855368.065558, 1488855368.065558, -1.467041, +0.514771, -0.385986, -83.870613, -104.574524, +43.644066 
1488855368.069515, 1488855368.069515, -1.467041, +0.514771, -0.385986, -83.870613, -104.574524, +43.644066 
1488855368.073462, 1488855368.073462, -1.467041, +0.514771, +1.926514, -65.834724, -150.228821, +10.303612 
1488855368.077223, 1488855368.077223, -1.391724, -0.701050, +1.911499, -65.834724, -150.228821, +10.303612 
1488855368.080978, 1488855368.080978, -1.391724, -0.701050, +1.911499, -65.834724, -150.228821, -32.665138 
1488855368.084742, 1488855368.084742, -1.391724, -0.701050, +1.911499, +10.520256, -179.312073, -30.376320 
1488855368.088493, 1488855368.088493, -1.391724, -0.701050, +1.911499, +10.520256, -179.312073, -30.376320 
1488855368.092245, 1488855368.092245, -1.391724, -0.701050, +1.911499, +10.520256, -112.905823, -34.984474 
1488855368.096128, 1488855368.096128, +0.038696, +0.223389, +0.204468, +142.051010, -110.494934, -34.984474 
1488855368.099884, 1488855368.099884, +0.038696, +0.223389, +0.204468, +142.051010, -110.494934, -34.984474 
1488855368.103807, 1488855368.103807, +0.038696, +0.223389, +0.204468, +207.602768, -35.223324, -12.096291 
1488855368.107760, 1488855368.107760, +0.038696, +0.223389, +0.204468, +207.602768, -35.223324, -12.096291 
1488855368.111712, 1488855368.111712, +0.038696, +0.223389, +0.204468, +207.602768, -35.223324, -12.096291 
1488855368.115707, 1488855368.115707, +0.295410, +0.687012, -0.177246, +208.640366, +23.202578, +3.177757 
1488855368.119660, 1488855368.119660, +0.295410, +0.687012, -0.177246, +208.640366, +23.202578, +3.177757 
1488855368.123613, 1488855368.123613, +0.295410, +0.687012, -0.177246, +208.640366, +23.202578, +3.177757 
1488855368.127555, 1488855368.127555, +0.295410, +0.687012, -0.177246, +187.522202, +69.131531, -5.290871 
1488855368.131509, 1488855368.131509, +0.295410, +0.687012, -0.177246, +187.522202, +69.131531, -5.290871 
1488855368.135383, 1488855368.135383, +0.675781, +0.417358, -0.473511, +187.522202, +69.131531, -36.540871 
1488855368.139135, 1488855368.139135, +0.675781, +0.417358, -0.473511, +160.575180, +114.495911, -33.748512 
1488855368.142884, 1488855368.142884, +0.675781, +0.417358, -0.473511, +160.575180, +114.495911, -33.748512 
1488855368.146771, 1488855368.146771, +0.675781, +0.417358, -0.473511, +160.575180, +141.839661, -64.510231 
1488855368.150530, 1488855368.150530, +0.675781, +0.417358, -0.473511, +130.744247, +143.273987, -64.510231 
1488855368.154469, 1488855368.154469, +0.311523, +0.263916, -0.446289, +130.744247, +143.273987, -64.510231 
1488855368.158618, 1488855368.158618, +0.311523, +0.263916, -0.446289, +93.879021, +159.677185, -89.687233 
1488855368.163020, 1488855368.163020, +0.311523, +0.263916, -0.446289, +93.879021, +159.677185, -89.687233 
1488855368.166989, 1488855368.166989, +0.311523, +0.263916, -0.446289, +93.879021, +159.677185, -89.687233 
1488855368.170940, 1488855368.170940, +0.311523, +0.263916, -0.446289, +54.541862, +175.439514, -107.204323 
1488855368.174902, 1488855368.174902, +0.303101, +0.073364, -0.717285, +54.541862, +175.439514, -107.204323 
1488855368.178851, 1488855368.178851, +0.303101, +0.073364, -0.717285, +54.541862, +175.439514, -126.735573 
1488855368.182810, 1488855368.182810, +0.303101, +0.073364, -0.717285, +10.215080, +201.989807, -124.706154 
1488855368.186769, 1488855368.186769, +0.303101, +0.073364, -0.717285, +10.215080, +201.989807, -124.706154 
1488855368.190724, 1488855368.190724, +0.303101, +0.073364, -0.717285, -21.034920, +230.065979, -139.354584 
1488855368.194613, 1488855368.194613, +0.093262, -0.297241, -0.601685, -18.501961, +230.065979, -139.354584 
1488855368.198362, 1488855368.198362, +0.093262, -0.297241, -0.601685, -18.501961, +230.065979, -139.354584 
1488855368.202123, 1488855368.202123, +0.093262, -0.297241, -0.601685, -19.814217, +249.902405, -149.623749 
1488855368.205924, 1488855368.205924, +0.093262, -0.297241, -0.601685, -19.814217, +249.902405, -149.623749 
1488855368.209679, 1488855368.209679, +0.093262, -0.297241, -0.601685, -19.814217, +249.902405, -149.623749 
1488855368.213629, 1488855368.213629, -0.338501, -0.510498, -0.395508, -4.616463, +261.468567, -161.311981 
1488855368.217583, 1488855368.217583, -0.338501, -0.510498, -0.395508, -4.616463, +261.468567, -161.311981 
1488855368.221539, 1488855368.221539, -0.338501, -0.510498, -0.395508, -4.616463, +261.468567, -161.311981 
1488855368.225503, 1488855368.225503, -0.338501, -0.510498, -0.395508, +12.519157, +267.434753, -168.926117 
1488855368.229458, 1488855368.229458, -0.338501, -0.510498, -0.395508, +12.519157, +267.434753, -168.926117 
1488855368.233392, 1488855368.233392, -0.500244, -0.479126, -0.475952, +12.519157, +267.434753, -172.832367 
1488855368.237148, 1488855368.237148, -0.500244, -0.479126, -0.475952, +29.670036, +277.658142, -171.611664 
1488855368.240899, 1488855368.240899, -0.500244, -0.479126, -0.475952, +29.670036, +277.658142, -171.611664 
1488855368.244757, 1488855368.244757, -0.500244, -0.479126, -0.475952, +29.670036, +297.189392, -170.604584 
1488855368.248710, 1488855368.248710, -0.500244, -0.479126, -0.475952, +47.690666, +296.334900, -170.604584 
1488855368.252664, 1488855368.252664, -0.500244, -0.248535, -0.583618, +47.690666, +296.334900, -170.604584 
1488855368.256629, 1488855368.256629, -0.678955, -0.248535, -0.583618, +62.033928, +312.432922, -165.767548 
1488855368.260574, 1488855368.260574, -0.678955, -0.248535, -0.583618, +62.033928, +312.432922, -165.767548 
1488855368.264542, 1488855368.264542, -0.678955, -0.248535, -0.583618, +62.033928, +312.432922, -165.767548 
1488855368.268490, 1488855368.268490, -0.678955, -0.248535, -0.583618, +72.745598, +325.708069, -161.327240 
1488855368.272444, 1488855368.272444, -0.678955, +0.032715, -0.651855, +72.745598, +325.708069, -161.327240 
1488855368.276414, 1488855368.276414, -0.890015, +0.044922, -0.651855, +72.745598, +325.708069, -161.327240 
1488855368.280590, 1488855368.280590, -0.890015, +0.044922, -0.651855, +79.413689, +338.937439, -157.970306 
1488855368.284878, 1488855368.284878, -0.890015, +0.044922, -0.651855, +79.413689, +338.937439, -157.970306 
1488855368.288629, 1488855368.288629, -0.890015, +0.044922, -0.651855, +83.319939, +355.722107, -156.535980 
1488855368.292393, 1488855368.292393, -0.890015, +0.390259, -0.785156, +83.503044, +355.722107, -156.535980 
1488855368.296349, 1488855368.296349, -1.104492, +0.390259, -0.785156, +83.503044, +355.722107, -156.535980 
1488855368.300305, 1488855368.300305, -1.104492, +0.390259, -0.785156, +85.150993, +378.778137, -152.629730 
1488855368.304305, 1488855368.304305, -1.104492, +0.390259, -0.785156, +85.150993, +378.778137, -152.629730 
1488855368.308357, 1488855368.308357, -1.104492, +0.390259, -0.785156, +85.150993, +378.778137, -152.629730 
1488855368.312308, 1488855368.312308, -1.104492, +0.382690, -0.790649, +91.574944, +405.023254, -142.162201 
1488855368.316142, 1488855368.316142, -1.804443, +0.382690, -0.790649, +91.574944, +405.023254, -142.162201 
1488855368.319901, 1488855368.319901, -1.804443, +0.382690, -0.790649, +91.574944, +405.023254, -142.162201 
1488855368.323695, 1488855368.323695, -1.804443, +0.382690, -0.790649, +100.043571, +418.939270, -132.427094 
1488855368.327454, 1488855368.327454, -1.804443, +0.382690, -0.790649, +100.043571, +418.939270, -132.427094 
1488855368.331214, 1488855368.331214, -1.804443, +0.382690, -0.790649, +100.043571, +418.939270, -120.708351 
1488855368.335130, 1488855368.335130, -2.784912, +0.523193, -0.708496, +124.518669, +420.098938, -119.670753 
1488855368.338890, 1488855368.338890, -2.784912, +0.523193, -0.708496, +124.518669, +420.098938, -119.670753 
1488855368.342646, 1488855368.342646, -2.784912, +0.523193, -0.708496, +124.518669, +424.005188, -117.610817 
1488855368.346659, 1488855368.346659, -2.784912, +0.523193, -0.708496, +130.820541, +424.249329, -117.610817 
1488855368.350592, 1488855368.350592, -2.784912, +0.523193, -0.708496, +130.820541, +424.249329, -117.610817 
1488855368.354537, 1488855368.354537, -3.858521, +0.397583, -0.244751, +98.151482, +410.241760, -119.167213 
1488855368.358461, 1488855368.358461, -3.858521, +0.397583, -0.244751, +98.151482, +410.241760, -119.167213 
1488855368.362396, 1488855368.362396, -3.858521, +0.397583, -0.244751, +98.151482, +410.241760, -119.167213 
1488855368.366341, 1488855368.366341, -3.858521, +0.397583, -0.244751, +98.670280, +366.189636, -108.119850 
1488855368.370271, 1488855368.370271, -3.858521, +0.397583, -0.244751, +98.670280, +366.189636, -108.119850 
1488855368.374209, 1488855368.374209, -3.596558, +1.292725, +0.740479, +98.670280, +366.189636, -108.119850 
1488855368.378137, 1488855368.378137, -3.596558, +1.292725, +0.740479, +142.249374, +314.218201, -99.391823 
1488855368.382072, 1488855368.382072, -3.596558, +1.292725, +0.740479, +142.249374, +314.218201, -99.391823 
1488855368.386007, 1488855368.386007, -3.596558, +1.292725, +0.740479, +142.249374, +314.218201, -87.398415 
1488855368.389938, 1488855368.389938, -3.596558, +1.292725, +0.740479, +187.888412, +253.549255, -87.398415 
1488855368.394000, 1488855368.394000, -3.003540, +2.119751, +1.273438, +187.888412, +253.549255, -87.398415 
1488855368.397887, 1488855368.397887, -3.003540, +2.119751, +1.273438, +206.122665, +197.824158, -60.390358 
1488855368.401964, 1488855368.401964, -3.003540, +2.119751, +1.273438, +206.122665, +197.824158, -60.390358 
1488855368.405995, 1488855368.405995, -3.003540, +2.119751, +1.273438, +206.122665, +197.824158, -60.390358 
1488855368.409926, 1488855368.409926, -3.003540, +2.119751, +1.273438, +178.687363, +147.958435, -10.768776 
1488855368.413895, 1488855368.413895, -3.087158, +2.661987, +2.748657, +178.687363, +147.958435, -10.768776 
1488855368.417813, 1488855368.417813, -3.087158, +2.661987, +2.748657, +178.687363, +147.958435, -10.768776 
1488855368.421739, 1488855368.421739, -3.087158, +2.661987, +2.748657, +117.896355, +65.728821, +38.089867 
1488855368.425648, 1488855368.425648, -3.087158, +2.661987, +2.748657, +117.896355, +65.728821, +38.089867 
1488855368.429539, 1488855368.429539, -3.087158, +2.661987, +2.748657, +117.896355, +65.728821, +76.511497 
1488855368.433533, 1488855368.433533, -2.298096, +2.698608, +1.627808, +68.045891, -22.131285, +76.511497 
1488855368.437289, 1488855368.437289, -2.298096, +2.698608, +1.627808, +68.045891, -22.131285, +76.511497 
1488855368.441040, 1488855368.441040, -2.298096, +2.698608, +1.627808, +21.170891, -90.139709, +99.979515 
1488855368.444853, 1488855368.444853, -2.298096, +2.698608, +1.627808, +19.156731, -90.139709, +99.979515 
1488855368.448608, 1488855368.448608, -2.298096, +2.698608, +1.627808, +19.156731, -90.139709, +99.979515 
1488855368.452471, 1488855368.452471, -1.629761, +0.642334, +0.603516, -43.358528, -140.875183, +101.047630 
1488855368.456326, 1488855368.456326, -1.629761, +0.642334, +0.603516, -43.358528, -140.875183, +101.047630 
1488855368.460084, 1488855368.460084, -1.629761, +0.642334, +0.603516, -43.358528, -140.875183, +101.047630 
1488855368.464016, 1488855368.464016, -1.629761, +0.642334, +0.603516, -64.812386, -148.001038, +50.846214 
1488855368.467970, 1488855368.467970, -1.629761, +0.642334, +0.603516, -64.812386, -148.001038, +50.846214 
1488855368.471916, 1488855368.471916, -1.159546, -3.488647, -3.212158, -64.812386, -148.001038, +50.846214 
1488855368.475904, 1488855368.475904, -1.159546, -3.488647, -3.212158, -63.606941, -65.328918, -31.246071 
1488855368.479842, 1488855368.479842, -1.159546, -3.488647, -3.212158, -63.606941, -65.328918, -31.246071 
1488855368.483767, 1488855368.483767, -1.159546, -3.488647, -3.212158, -63.606941, -65.328918, -31.246071 
1488855368.487519, 1488855368.487519, -1.159546, -3.488647, -3.212158, -45.357430, -76.086365, -7.655983 
1488855368.491278, 1488855368.491278, -3.999023, +1.063110, +2.003174, -45.357430, -76.086365, -7.655983 
1488855368.495035, 1488855368.495035, -3.999023, +1.063110, +2.003174, -45.357430, -76.086365, +46.634789 
1488855368.498787, 1488855368.498787, -3.999023, +1.063110, +2.003174, -66.841805, -212.515198, +46.634789 
1488855368.502534, 1488855368.502534, -3.999023, +1.063110, +2.003174, -66.841805, -212.515198, +46.634789 
1488855368.506519, 1488855368.506519, -3.999023, +1.063110, +2.003174, -146.202774, -255.651794, +69.065208 
1488855368.510472, 1488855368.510472, -3.999023, -1.468140, -1.302002, -146.202774, -255.651794, +69.065208 
1488855368.514426, 1488855368.514426, -1.521606, -1.467407, -1.302002, -146.202774, -255.651794, +69.065208 
1488855368.518375, 1488855368.518375, -1.521606, -1.467407, -1.302002, -161.598892, -171.224915, +69.355125 
1488855368.522465, 1488855368.522465, -1.521606, -1.467407, -1.302002, -161.598892, -171.224915, +69.355125 
1488855368.526984, 1488855368.526984, -1.521606, -1.467407, -1.302002, -161.598892, -171.224915, +69.355125 
1488855368.530730, 1488855368.530730, -1.521606, +1.016602, +0.520752, -100.609505, -122.534119, +130.313995 
1488855368.534557, 1488855368.534557, -1.140137, +1.016602, +0.520752, -100.609505, -122.534119, +130.313995 
1488855368.538310, 1488855368.538310, -1.140137, +1.016602, +0.520752, -100.609505, -122.534119, +212.345245 
1488855368.542054, 1488855368.542054, -1.140137, +1.016602, +0.520752, +14.899529, -106.283508, +211.536530 
1488855368.545812, 1488855368.545812, -1.140137, +1.016602, +0.520752, +14.899529, -106.283508, +211.536530 
1488855368.549550, 1488855368.549550, -1.140137, +1.016602, +0.520752, +14.899529, -106.283508, +189.136627 
1488855368.553306, 1488855368.553306, -1.378174, +0.356812, +0.063965, +102.210320, -90.551697, +189.136627 
1488855368.557061, 1488855368.557061, -1.378174, +0.356812, +0.063965, +102.210320, -90.551697, +189.136627 
1488855368.560809, 1488855368.560809, -1.378174, +0.356812, +0.063965, +102.210320, -93.237244, +118.045921 
1488855368.564629, 1488855368.564629, -1.378174, +0.356812, +0.063965, +132.148056, -93.237244, +118.045921 
1488855368.568369, 1488855368.568369, -1.378174, +0.356812, +0.063965, +132.148056, -93.237244, +118.045921 
1488855368.572117, 1488855368.572117, -0.777466, +0.811401, +0.247437, +111.472404, -105.642639, +88.718529 
1488855368.575964, 1488855368.575964, -0.777466, +0.811401, +0.247437, +111.472404, -105.642639, +88.718529 
1488855368.579716, 1488855368.579716, -0.777466, +0.811401, +0.247437, +111.472404, -105.642639, +88.718529 
1488855368.583594, 1488855368.583594, -0.777466, +0.811401, +0.247437, +85.562981, -103.109680, +63.831444 
1488855368.587337, 1488855368.587337, -0.777466, +0.811401, +0.247437, +85.562981, -103.109680, +63.831444 
1488855368.591085, 1488855368.591085, -1.218506, +0.946411, -0.307251, +85.562981, -103.109680, +63.831444 
1488855368.594846, 1488855368.594846, -1.218506, +0.946411, -0.307251, +47.522820, -104.330383, +36.457176 
1488855368.598711, 1488855368.598711, -1.218506, +0.946411, -0.307251, +47.522820, -104.330383, +36.457176 
1488855368.602451, 1488855368.602451, -1.218506, +0.946411, -0.307251, +47.522820, -104.330383, +36.457176 
1488855368.606385, 1488855368.606385, -1.218506, +0.946411, -0.307251, +13.098991, -105.154358, +21.595116 
1488855368.610332, 1488855368.610332, -1.274902, +0.182617, -0.068604, +13.098991, -105.154358, +21.595116 
1488855368.614242, 1488855368.614242, -1.274902, +0.182617, -0.068604, +13.098991, -105.154358, +21.595116 
1488855368.617996, 1488855368.617996, -1.274902, +0.182617, -0.068604, +2.707756, -93.191467, +19.687767 
1488855368.621743, 1488855368.621743, -1.274902, +0.182617, -0.068604, +2.707756, -93.191467, +19.687767 
1488855368.625632, 1488855368.625632, -1.274902, +0.182617, -0.068604, +2.707756, -93.191467, +12.149925 
1488855368.629577, 1488855368.629577, -1.274902, -0.004883, -0.161255, +2.173698, -77.093445, +12.149925 
1488855368.633525, 1488855368.633525, -0.953613, -0.020630, -0.161255, +2.173698, -77.093445, +12.149925 
1488855368.637270, 1488855368.637270, -0.953613, -0.020630, -0.161255, +1.426017, -65.237366, +12.424583 
1488855368.641166, 1488855368.641166, -0.953613, -0.020630, -0.161255, +1.426017, -65.237366, +12.424583 
1488855368.645341, 1488855368.645341, -0.953613, -0.020630, -0.161255, +1.426017, -65.237366, +12.424583 
1488855368.649294, 1488855368.649294, -0.953613, -0.020630, -0.436523, -8.858406, -51.916439, +17.566795 
1488855368.653291, 1488855368.653291, -1.321777, +0.148926, -0.436523, -8.858406, -51.916439, +17.566795 
1488855368.657235, 1488855368.657235, -1.321777, +0.148926, -0.436523, -8.858406, -51.916439, +17.566795 
1488855368.661189, 1488855368.661189, -1.321777, +0.148926, -0.436523, -10.384285, -50.451595, +20.374413 
1488855368.665155, 1488855368.665155, -1.321777, +0.148926, -0.436523, -10.384285, -50.451595, +20.374413 
1488855368.669104, 1488855368.669104, -1.321777, +0.148926, -0.305054, -10.384285, -50.451595, +16.819115 
1488855368.673073, 1488855368.673073, -1.365234, +0.201904, -0.305054, -8.660042, -55.548031, +16.819115 
1488855368.676821, 1488855368.676821, -1.365234, +0.201904, -0.305054, -8.660042, -55.548031, +16.819115 
1488855368.680572, 1488855368.680572, -1.365234, +0.201904, -0.305054, -8.660042, -57.913143, +15.125389 
1488855368.684323, 1488855368.684323, -1.365234, +0.201904, -0.305054, -15.572273, -57.913143, +15.125389 
1488855368.688076, 1488855368.688076, -1.365234, +0.201904, -0.305054, -15.572273, -57.913143, +15.125389 
1488855368.691819, 1488855368.691819, -0.803467, +0.127930, -0.462402, -15.862190, -52.618343, +13.187523 
1488855368.695726, 1488855368.695726, -0.803467, +0.127930, -0.462402, -15.862190, -52.618343, +13.187523 
1488855368.699487, 1488855368.699487, -0.803467, +0.127930, -0.462402, -15.862190, -52.618343, +13.187523 
1488855368.703388, 1488855368.703388, -0.803467, +0.127930, -0.462402, -8.232796, -43.157894, +18.238182 
1488855368.707340, 1488855368.707340, -0.803467, +0.127930, -0.462402, -8.232796, -43.157894, +18.238182 
1488855368.711281, 1488855368.711281, -0.607910, +0.277466, -0.477173, -8.232796, -43.157894, +18.238182 
1488855368.715229, 1488855368.715229, -0.607910, +0.277466, -0.477173, +16.089714, -32.919247, +21.701927 
1488855368.719176, 1488855368.719176, -0.607910, +0.277466, -0.477173, +16.089714, -32.919247, +21.701927 
1488855368.723135, 1488855368.723135, -0.607910, +0.277466, -0.477173, +16.089714, -32.919247, +21.701927 
1488855368.727080, 1488855368.727080, -0.607910, +0.277466, -0.477173, +23.246086, -27.258238, +22.373314 
1488855368.731038, 1488855368.731038, -1.117065, +0.288330, -0.279053, +23.246086, -27.258238, +22.373314 
1488855368.734911, 1488855368.734911, -1.117065, +0.288330, -0.279053, +23.246086, -29.089293, +20.679588 
1488855368.738662, 1488855368.738662, -1.117065, +0.288330, -0.279053, +10.978020, -29.089293, +20.679588 
1488855368.742411, 1488855368.742411, -1.117065, +0.288330, -0.279053, +10.978020, -29.089293, +20.679588 
1488855368.746461, 1488855368.746461, -1.117065, +0.288330, -0.279053, -1.503670, -30.508360, +19.687767 
1488855368.750413, 1488855368.750413, -1.175049, +0.178345, -0.155396, -1.503670, -30.508360, +19.687767 
1488855368.754367, 1488855368.754367, -1.175049, +0.178345, -0.155396, -1.503670, -30.508360, +19.687767 
1488855368.758311, 1488855368.758311, -1.175049, +0.178345, -0.155396, -12.566292, -33.087093, +16.452904 
1488855368.762336, 1488855368.762336, -1.175049, +0.178345, -0.155396, -12.566292, -33.087093, +16.452904 
1488855368.766709, 1488855368.766709, -1.175049, +0.178345, -0.155396, -12.566292, -33.087093, +16.452904 
1488855368.770669, 1488855368.770669, -1.051514, +0.225708, -0.250000, -23.567879, -38.000423, +13.889427 
1488855368.774622, 1488855368.774622, -1.051514, +0.225708, -0.250000, -23.567879, -38.000423, +13.889427 
1488855368.778574, 1488855368.778574, -1.051514, +0.225708, -0.250000, -27.474129, -41.754086, +13.813133 
1488855368.782526, 1488855368.782526, -1.051514, +0.225708, -0.250000, -27.077400, -41.754086, +13.813133 
1488855368.786340, 1488855368.786340, -1.051514, +0.225708, -0.250000, -27.077400, -41.754086, +13.813133 
1488855368.790098, 1488855368.790098, -1.089111, +0.184937, -0.351318, -21.752083, -44.744808, +17.215843 
1488855368.793887, 1488855368.793887, -1.089111, +0.184937, -0.351318, -21.752083, -44.744808, +17.215843 
1488855368.797637, 1488855368.797637, -1.089111, +0.184937, -0.351318, -21.752083, -44.744808, +17.215843 
1488855368.801387, 1488855368.801387, -1.089111, +0.184937, -0.351318, -17.616951, -50.299007, +21.595116 
1488855368.805194, 1488855368.805194, -1.089111, +0.184937, -0.351318, -17.616951, -50.299007, +21.595116 
1488855368.808951, 1488855368.808951, -1.237061, +0.265747, -0.324951, -17.616951, -50.299007, +21.595116 
1488855368.812704, 1488855368.812704, -1.237061, +0.265747, -0.324951, -20.546638, -55.029232, +23.929710 
1488855368.816502, 1488855368.816502, -1.237061, +0.265747, -0.324951, -20.546638, -55.029232, +23.929710 
1488855368.820258, 1488855368.820258, -1.237061, +0.265747, -0.324951, -20.546638, -55.029232, +23.929710 
1488855368.824202, 1488855368.824202, -1.237061, +0.265747, -0.324951, -23.750984, -60.934383, +26.477928 
1488855368.828155, 1488855368.828155, -1.237061, +0.234497, -0.363525, -23.750984, -60.934383, +26.477928 
1488855368.832112, 1488855368.832112, -1.257812, +0.226562, -0.363525, -23.750984, -60.934383, +30.384178 
1488855368.835954, 1488855368.835954, -1.257812, +0.226562, -0.363525, -24.803841, -66.168152, +30.735130 
1488855368.839708, 1488855368.839708, -1.257812, +0.226562, -0.363525, -24.803841, -66.168152, +30.735130 
1488855368.843531, 1488855368.843531, -1.257812, +0.226562, -0.363525, -24.803841, -73.980652, +34.702415 
1488855368.847490, 1488855368.847490, -1.257812, +0.226562, -0.207275, -25.322639, -71.722351, +34.702415 
1488855368.851446, 1488855368.851446, -1.290649, +0.272461, -0.189087, -25.322639, -71.722351, +34.702415 
1488855368.855404, 1488855368.855404, -1.290649, +0.272461, -0.189087, -30.983650, -79.000793, +36.350365 
1488855368.859362, 1488855368.859362, -1.290649, +0.272461, -0.189087, -30.983650, -79.000793, +36.350365 
1488855368.863321, 1488855368.863321, -1.290649, +0.272461, -0.189087, -30.983650, -79.000793, +36.350365 
1488855368.867274, 1488855368.867274, -1.290649, +0.272461, -0.126587, -34.981453, -86.416565, +35.495872 
1488855368.871225, 1488855368.871225, -1.374023, +0.156128, -0.144409, -34.981453, -86.416565, +35.495872 
1488855368.875186, 1488855368.875186, -1.374023, +0.156128, -0.144409, -34.981453, -86.416565, +35.495872 
1488855368.879189, 1488855368.879189, -1.374023, +0.156128, -0.144409, -32.753670, -95.312439, +36.319847 
1488855368.883617, 1488855368.883617, -1.374023, +0.156128, -0.144409, -32.753670, -95.312439, +36.319847 
1488855368.887380, 1488855368.887380, -1.374023, +0.156128, -0.408447, -32.753670, -106.893860, +39.005394 
1488855368.891139, 1488855368.891139, -1.533813, +0.063110, -0.408447, -28.130257, -106.893860, +39.005394 
1488855368.895000, 1488855368.895000, -1.533813, +0.063110, -0.408447, -28.130257, -106.893860, +39.005394 
1488855368.899053, 1488855368.899053, -1.533813, +0.063110, -0.408447, -22.301399, -117.620789, +43.872948 
1488855368.903017, 1488855368.903017, -1.533813, +0.063110, -0.408447, -22.301399, -117.620789, +43.872948 
1488855368.906970, 1488855368.906970, -1.533813, +0.063110, -0.627197, -22.301399, -117.620789, +43.872948 
1488855368.910910, 1488855368.910910, -1.840576, +0.248413, -0.627686, -22.972786, -126.821838, +52.784081 
1488855368.914821, 1488855368.914821, -1.840576, +0.248413, -0.627686, -22.972786, -126.821838, +52.784081 
1488855368.918568, 1488855368.918568, -1.840576, +0.248413, -0.627686, -22.972786, -126.821838, +52.784081 
1488855368.922331, 1488855368.922331, -1.840576, +0.248413, -0.627686, -32.662117, -134.878479, +56.232567 
1488855368.926135, 1488855368.926135, -1.840576, +0.248413, -0.627686, -32.662117, -134.878479, +56.232567 
1488855368.929893, 1488855368.929893, -2.086548, +0.046753, -0.570068, -32.662117, -134.878479, +56.232567 
1488855368.933794, 1488855368.933794, -2.086548, +0.046753, -0.570068, -42.793953, -146.475159, +61.054344 
1488855368.937549, 1488855368.937549, -2.086548, +0.046753, -0.570068, -42.793953, -146.475159, +61.054344 
1488855368.941306, 1488855368.941306, -2.086548, +0.046753, -0.570068, -42.793953, -146.475159, +64.090843 
1488855368.945267, 1488855368.945267, -2.086548, +0.046753, -0.570068, -52.315437, -158.850037, +64.090843 
1488855368.949196, 1488855368.949196, -2.071777, +0.026367, -0.717041, -52.315437, -158.850037, +64.090843 
1488855368.953130, 1488855368.953130, -2.071777, +0.026367, -0.717041, -62.660896, -170.706116, +69.141502 
1488855368.957057, 1488855368.957057, -2.071777, +0.026367, -0.717041, -62.660896, -170.706116, +69.141502 
1488855368.960989, 1488855368.960989, -2.071777, +0.026367, -0.717041, -62.660896, -170.706116, +69.141502 
1488855368.964923, 1488855368.964923, -2.071777, +0.026367, -0.717041, -82.314217, -181.951843, +73.017235 
1488855368.968847, 1488855368.968847, -1.995117, -0.171631, -1.256958, -82.314217, -181.951843, +73.017235 
1488855368.972764, 1488855368.972764, -1.995117, -0.171631, -1.256958, -82.314217, -181.951843, +73.017235 
1488855368.976694, 1488855368.976694, -1.995117, -0.171631, -1.256958, -108.345711, -187.216125, +70.484276 
1488855368.980609, 1488855368.980609, -1.995117, -0.171631, -1.256958, -108.345711, -187.216125, +70.484276 
1488855368.984532, 1488855368.984532, -1.995117, -0.171631, -1.256958, -108.345711, -187.216125, +70.484276 
1488855368.988286, 1488855368.988286, -2.473511, -0.296875, -1.296387, -129.753799, -190.023743, +61.649437 
1488855368.992035, 1488855368.992035, -2.473511, -0.296875, -1.296387, -129.753799, -190.023743, +61.649437 
1488855368.995800, 1488855368.995800, -2.473511, -0.296875, -1.296387, -129.753799, -190.023743, +61.618919 
1488855368.999545, 1488855368.999545, -2.473511, -0.296875, -1.296387, -143.166275, -199.697815, +61.618919 
1488855369.003325, 1488855369.003325, -2.473511, -0.296875, -1.296387, -143.166275, -199.697815, +61.618919 
1488855369.007271, 1488855369.007271, -2.379761, -0.575928, -1.642090, -135.353775, -197.576843, +65.860863 
1488855369.011426, 1488855369.011426, -2.384399, -0.575928, -1.642090, -137.657852, -197.576843, +65.860863 
1488855369.015790, 1488855369.015790, -2.384399, -0.575928, -1.642090, -137.657852, -197.576843, +65.860863 
1488855369.019736, 1488855369.019736, -2.384399, -0.575928, -1.642090, -136.284561, -192.968689, +64.548607 
1488855369.023702, 1488855369.023702, -2.384399, -0.575928, -1.642090, -136.284561, -192.968689, +64.548607 
1488855369.027653, 1488855369.027653, -2.262695, -0.542725, -1.119385, -136.284561, -192.968689, +64.548607 
1488855369.031603, 1488855369.031603, -2.262695, -0.542725, -1.119385, -152.672501, -193.685852, +53.226585 
1488855369.035442, 1488855369.035442, -2.262695, -0.542725, -1.119385, -152.672501, -193.685852, +53.226585 
1488855369.040274, 1488855369.040274, -2.262695, -0.542725, -1.119385, -187.370987, -169.714294, +22.174950 
1488855369.044229, 1488855369.044229, -2.262695, -0.542725, -1.119385, -187.370987, -169.714294, +22.174950 
1488855369.047974, 1488855369.047974, -1.646973, +0.312866, -1.108276, -187.370987, -169.714294, +22.174950 
1488855369.051722, 1488855369.051722, -1.646973, +0.312866, -1.108276, -222.618790, -135.168396, +8.640404 
1488855369.055466, 1488855369.055466, -1.646973, +0.312866, -1.108276, -222.618790, -135.168396, +8.640404 
1488855369.059210, 1488855369.059210, -1.646973, +0.312866, -1.108276, -222.618790, -135.168396, +8.640404 
1488855369.063003, 1488855369.063003, -1.646973, +0.312866, -1.108276, -198.082657, -118.368469, +2.750511 
1488855369.066744, 1488855369.066744, -1.896973, +0.765137, -0.272339, -198.082657, -118.368469, +2.750511 
1488855369.070484, 1488855369.070484, -1.898804, +0.765137, -0.272339, -198.082657, -118.368469, +2.750511 
1488855369.074262, 1488855369.074262, -1.898804, +0.765137, -0.272339, -133.537979, -113.180481, +18.695946 
1488855369.078013, 1488855369.078013, -1.898804, +0.765137, -0.272339, -133.537979, -113.180481, +18.695946 
1488855369.081757, 1488855369.081757, -1.898804, +0.765137, -0.272339, -133.537979, -113.180481, +18.695946 
1488855369.085704, 1488855369.085704, -1.898804, +0.765137, +1.383911, -73.631966, -124.075256, +38.547630 
1488855369.089458, 1488855369.089458, -1.381348, +0.432251, +1.398438, -73.631966, -124.075256, +38.547630 
1488855369.093386, 1488855369.093386, -1.381348, +0.432251, +1.398438, -73.631966, -124.075256, +38.547630 
1488855369.097328, 1488855369.097328, -1.381348, +0.432251, +1.398438, -34.615242, -144.750916, +4.963036 
1488855369.101282, 1488855369.101282, -1.381348, +0.432251, +1.398438, -34.615242, -144.750916, +4.963036 
1488855369.105280, 1488855369.105280, -1.381348, +0.432251, +1.398438, +35.697258, -94.930969, -23.479347 
1488855369.109230, 1488855369.109230, +0.082275, -0.081055, -0.247681, +34.751213, -94.930969, -23.479347 
1488855369.113246, 1488855369.113246, +0.082275, -0.081055, -0.247681, +34.751213, -94.930969, -23.479347 
1488855369.117197, 1488855369.117197, +0.082275, -0.081055, -0.247681, +87.210930, -5.865416, -19.954567 
1488855369.121148, 1488855369.121148, +0.082275, -0.081055, -0.247681, +87.210930, -5.865416, -19.954567 
1488855369.125011, 1488855369.125011, +0.082275, -0.081055, -0.247681, +87.210930, -5.865416, -19.954567 
1488855369.128760, 1488855369.128760, -0.211792, -0.322632, -0.550415, +122.519768, +40.124577, -8.800392 
1488855369.132515, 1488855369.132515, -0.211792, -0.322632, -0.550415, +122.519768, +40.124577, -8.800392 
1488855369.136446, 1488855369.136446, -0.211792, -0.322632, -0.550415, +122.519768, +40.124577, -8.800392 
1488855369.140403, 1488855369.140403, -0.211792, -0.322632, -0.550415, +160.987167, +68.322815, -16.109352 
1488855369.144425, 1488855369.144425, -0.211792, -0.322632, -0.550415, +160.987167, +68.322815, -16.109352 
1488855369.148380, 1488855369.148380, +0.196411, +0.138306, -0.473877, +160.987167, +103.479065, -39.226418 
1488855369.153260, 1488855369.153260, +0.196411, +0.138306, -0.473877, +170.630722, +103.509583, -39.226418 
1488855369.157003, 1488855369.157003, +0.196411, +0.138306, -0.473877, +170.630722, +103.509583, -39.226418 
1488855369.160748, 1488855369.160748, +0.196411, +0.138306, -0.473877, +142.157822, +133.691467, -62.572365 
1488855369.164609, 1488855369.164609, +0.196411, +0.138306, -0.473877, +142.157822, +133.691467, -62.572365 
1488855369.168353, 1488855369.168353, +0.155151, +0.386597, -0.258057, +142.157822, +133.691467, -62.572365 
1488855369.172090, 1488855369.172090, +0.155151, +0.386597, -0.258057, +92.322624, +156.518616, -82.942848 
1488855369.175850, 1488855369.175850, +0.155151, +0.386597, -0.258057, +92.322624, +156.518616, -82.942848 
1488855369.179593, 1488855369.179593, +0.155151, +0.386597, -0.258057, +92.322624, +156.518616, -82.942848 
1488855369.183336, 1488855369.183336, +0.155151, +0.386597, -0.258057, +47.751701, +178.170837, -98.842506 
1488855369.187086, 1488855369.187086, +0.018188, +0.274048, -0.340698, +47.751701, +178.170837, -98.842506 
1488855369.190938, 1488855369.190938, +0.018188, +0.274048, -0.340698, +47.751701, +178.170837, -98.842506 
1488855369.194695, 1488855369.194695, +0.018188, +0.274048, -0.340698, +28.907097, +202.859558, -108.104591 
1488855369.198435, 1488855369.198435, +0.018188, +0.274048, -0.340698, +28.907097, +202.859558, -108.104591 
1488855369.202180, 1488855369.202180, +0.018188, +0.274048, -0.340698, +28.907097, +202.859558, -108.104591 
1488855369.206105, 1488855369.206105, -0.090942, -0.076538, -0.363037, +28.312004, +229.562439, -113.963966 
1488855369.209856, 1488855369.209856, -0.090942, -0.076538, -0.363037, +28.312004, +229.562439, -113.963966 
1488855369.213801, 1488855369.213801, -0.090942, -0.076538, -0.363037, +28.312004, +252.999939, -121.288185 
1488855369.217753, 1488855369.217753, -0.090942, -0.076538, -0.363037, +36.933220, +250.436462, -121.288185 
1488855369.221706, 1488855369.221706, -0.090942, -0.076538, -0.363037, +36.933220, +250.436462, -121.288185 
1488855369.225565, 1488855369.225565, -0.309692, -0.174072, -0.391968, +47.629631, +266.305603, -130.962250 
1488855369.229323, 1488855369.229323, -0.311401, -0.174072, -0.391968, +47.629631, +266.305603, -130.962250 
1488855369.233083, 1488855369.233083, -0.311401, -0.174072, -0.391968, +47.629631, +266.305603, -130.962250 
1488855369.237042, 1488855369.237042, -0.311401, -0.174072, -0.391968, +53.900993, +280.801453, -138.576385 
1488855369.240994, 1488855369.240994, -0.311401, -0.174072, -0.391968, +53.900993, +280.801453, -138.576385 
1488855369.244948, 1488855369.244948, -0.311401, -0.136108, -0.441284, +53.900993, +280.801453, -138.576385 
1488855369.249403, 1488855369.249403, -0.663330, -0.136108, -0.441284, +49.826897, +293.527283, -143.337128 
1488855369.253235, 1488855369.253235, -0.663330, -0.136108, -0.441284, +49.826897, +293.527283, -143.337128 
1488855369.256996, 1488855369.256996, -0.663330, -0.136108, -0.441284, +49.826897, +293.527283, -147.243378 
1488855369.260740, 1488855369.260740, -0.663330, -0.136108, -0.441284, +35.910881, +304.330505, -147.701141 
1488855369.264552, 1488855369.264552, -0.663330, -0.136108, -0.426636, +35.910881, +304.330505, -147.701141 
1488855369.268308, 1488855369.268308, -0.758667, -0.076660, -0.426636, +35.910881, +312.143005, -149.272797 
1488855369.272491, 1488855369.272491, -0.758667, -0.076660, -0.426636, +30.188835, +313.043274, -149.272797 
1488855369.276249, 1488855369.276249, -0.758667, -0.076660, -0.426636, +30.188835, +313.043274, -149.272797 
1488855369.279987, 1488855369.279987, -0.758667, -0.076660, -0.426636, +35.300529, +325.021423, -148.067352 
1488855369.283784, 1488855369.283784, -0.758667, -0.076660, -0.426636, +35.300529, +325.021423, -148.067352 
1488855369.287738, 1488855369.287738, -0.988281, +0.026733, -0.474854, +35.300529, +325.021423, -148.067352 
1488855369.291684, 1488855369.291684, -0.988281, +0.026733, -0.474854, +42.365349, +340.524353, -146.129486 
1488855369.295645, 1488855369.295645, -0.988281, +0.026733, -0.474854, +42.365349, +340.524353, -146.129486 
1488855369.299590, 1488855369.299590, -0.988281, +0.026733, -0.474854, +42.365349, +340.524353, -146.129486 
1488855369.303545, 1488855369.303545, -0.988281, +0.026733, -0.474854, +48.621452, +358.407654, -142.207977 
1488855369.307302, 1488855369.307302, -1.439209, +0.222534, -0.702148, +48.621452, +358.407654, -142.207977 
1488855369.311065, 1488855369.311065, -1.439209, +0.222534, -0.702148, +48.621452, +358.407654, -142.207977 
1488855369.314958, 1488855369.314958, -1.439209, +0.222534, -0.702148, +58.127678, +375.680603, -135.555145 
1488855369.318711, 1488855369.318711, -1.439209, +0.222534, -0.702148, +58.127678, +375.680603, -135.555145 
1488855369.322470, 1488855369.322470, -1.439209, +0.222534, -0.702148, +58.127678, +375.680603, -132.366058 
1488855369.326468, 1488855369.326468, -2.053711, +0.080444, -0.735596, +61.774529, +382.547058, -132.366058 
1488855369.330399, 1488855369.330399, -2.053711, +0.080444, -0.735596, +61.774529, +382.547058, -132.366058 
1488855369.334343, 1488855369.334343, -2.053711, +0.080444, -0.735596, +66.413200, +383.950867, -127.986794 
1488855369.338393, 1488855369.338393, -2.053711, +0.080444, -0.735596, +66.413200, +383.950867, -127.986794 
1488855369.342324, 1488855369.342324, -2.053711, +0.080444, -0.735596, +66.413200, +383.950867, -127.986794 
1488855369.346303, 1488855369.346303, -2.747559, +0.045654, -0.423828, +81.549919, +385.003723, -120.723610 
1488855369.350236, 1488855369.350236, -2.747559, +0.045654, -0.423828, +81.549919, +385.003723, -120.723610 
1488855369.354174, 1488855369.354174, -2.747559, +0.045654, -0.423828, +81.549919, +385.003723, -120.723610 
1488855369.358102, 1488855369.358102, -2.747559, +0.045654, -0.423828, +99.509514, +375.756897, -114.345436 
1488855369.362028, 1488855369.362028, -2.747559, +0.045654, -0.423828, +99.509514, +375.756897, -114.345436 
1488855369.365970, 1488855369.365970, -3.162476, +0.282837, -0.086426, +99.509514, +375.756897, -107.173805 
1488855369.369895, 1488855369.369895, -3.162476, +0.282837, -0.086426, +128.730087, +353.646912, -107.173805 
1488855369.373880, 1488855369.373880, -3.162476, +0.282837, -0.086426, +128.730087, +353.646912, -107.173805 
1488855369.377833, 1488855369.377833, -3.162476, +0.282837, -0.086426, +159.354477, +326.898254, -102.886086 
1488855369.381840, 1488855369.381840, -3.162476, +0.282837, -0.086426, +159.354477, +326.898254, -102.886086 
1488855369.386060, 1488855369.386060, -3.072632, +0.954224, +0.147217, +159.354477, +326.898254, -102.886086 
1488855369.390013, 1488855369.390013, -3.072632, +0.954224, +0.147217, +179.435043, +292.672791, -101.100807 
1488855369.393976, 1488855369.393976, -3.072632, +0.954224, +0.147217, +179.435043, +292.672791, -101.100807 
1488855369.397932, 1488855369.397932, -3.072632, +0.954224, +0.147217, +179.435043, +292.672791, -101.100807 
1488855369.401887, 1488855369.401887, -3.072632, +0.954224, +0.147217, +193.259506, +254.281677, -90.740089 
1488855369.405842, 1488855369.405842, -2.729248, +1.880615, +0.619629, +193.259506, +254.281677, -90.740089 
1488855369.409795, 1488855369.409795, -2.729248, +1.880615, +0.619629, +193.259506, +223.031677, -59.841042 
1488855369.413735, 1488855369.413735, -2.729248, +1.880615, +0.619629, +204.596786, +224.221863, -59.841042 
1488855369.417491, 1488855369.417491, -2.729248, +1.880615, +0.619629, +204.596786, +224.221863, -59.841042 
1488855369.421249, 1488855369.421249, -2.729248, +1.880615, +0.619629, +184.989243, +183.786072, -24.379616 
1488855369.425079, 1488855369.425079, -3.033325, +2.841553, +2.217529, +184.989243, +183.786072, -24.379616 
1488855369.428832, 1488855369.428832, -3.033325, +2.841553, +2.217529, +184.989243, +183.786072, -24.379616 
1488855369.432582, 1488855369.432582, -3.033325, +2.841553, +2.217529, +105.216301, +105.386414, +0.141258 
1488855369.436494, 1488855369.436494, -3.033325, +2.841553, +2.217529, +105.216301, +105.386414, +0.141258 
1488855369.440246, 1488855369.440246, -3.033325, +2.841553, +2.217529, +105.216301, +105.386414, +0.141258 
1488855369.444203, 1488855369.444203, -2.331543, +2.431519, +2.080322, +15.662468, +15.527407, +23.120995 
1488855369.448157, 1488855369.448157, -2.331543, +2.431519, +2.080322, +15.662468, +15.527407, +23.120995 
1488855369.452106, 1488855369.452106, -2.331543, +2.431519, +2.080322, +15.662468, +15.527407, +23.120995 
1488855369.456111, 1488855369.456111, -2.331543, +2.431519, +2.080322, -20.836555, -53.091366, +51.136131 
1488855369.460057, 1488855369.460057, -2.331543, +2.431519, +2.080322, -20.836555, -53.091366, +51.136131 
1488855369.463966, 1488855369.463966, -1.952393, +1.745605, +1.664673, -20.836555, -53.091366, +70.057030 
1488855369.467722, 1488855369.467722, -1.952393, +1.745605, +1.664673, -58.220589, -107.488953, +70.057030 
1488855369.471473, 1488855369.471473, -1.952393, +1.745605, +1.664673, -58.220589, -107.488953, +70.057030 
1488855369.475364, 1488855369.475364, -1.952393, +1.745605, +1.664673, -85.564339, -149.145447, +73.154564 
1488855369.479306, 1488855369.479306, -1.952393, +1.745605, +1.664673, -87.227547, -149.145447, +73.154564 
1488855369.483273, 1488855369.483273, -1.952393, -2.692993, -2.658081, -87.227547, -149.145447, +73.154564 
1488855369.487147, 1488855369.487147, -0.328491, -2.692993, -2.658081, -81.780159, -138.296448, +31.040306 
1488855369.490902, 1488855369.490902, -0.328491, -2.692993, -2.658081, -81.780159, -138.296448, +31.040306 
1488855369.494803, 1488855369.494803, -0.328491, -2.692993, -2.658081, -81.780159, -138.296448, +31.040306 
1488855369.498715, 1488855369.498715, -0.328491, -2.692993, -2.658081, -54.726326, -62.719662, -29.476051 
1488855369.503224, 1488855369.503224, -0.328491, -1.244995, +0.029663, -54.726326, -62.719662, -29.476051 
1488855369.507177, 1488855369.507177, -3.248291, -1.244995, +0.029663, -54.726326, -62.719662, +1.773949 
1488855369.511122, 1488855369.511122, -3.248291, -1.244995, +0.029663, -26.268684, -96.578918, -1.384621 
1488855369.515004, 1488855369.515004, -3.248291, -1.244995, +0.029663, -26.268684, -96.578918, -1.384621 
1488855369.518754, 1488855369.518754, -3.248291, -1.244995, +0.029663, -26.268684, -213.766418, +65.509911 
1488855369.522510, 1488855369.522510, -3.248291, -1.244995, +0.317627, -28.877937, -214.834534, +65.509911 
1488855369.526387, 1488855369.526387, -2.714355, +0.980835, +0.317627, -28.877937, -214.834534, +65.509911 
1488855369.530281, 1488855369.530281, -2.714355, +0.980835, +0.317627, -85.594856, -225.210510, +113.956566 
1488855369.534140, 1488855369.534140, -2.714355, +0.980835, +0.317627, -85.594856, -225.210510, +113.956566 
1488855369.537897, 1488855369.537897, -2.714355, +0.980835, +0.317627, -85.594856, -225.210510, +113.956566 
1488855369.541654, 1488855369.541654, -2.714355, +0.980835, +0.317627, -119.179451, -144.338928, +93.631859 
1488855369.545423, 1488855369.545423, -1.385986, -0.171387, +0.031616, -119.179451, -144.338928, +93.631859 
1488855369.549177, 1488855369.549177, -1.385986, -0.171387, +0.031616, -119.179451, -144.338928, +93.631859 
1488855369.552930, 1488855369.552930, -1.385986, -0.171387, +0.031616, -85.869514, -118.322693, +140.003326 
1488855369.556858, 1488855369.556858, -1.385986, -0.171387, +0.031616, -85.869514, -118.322693, +140.003326 
1488855369.560620, 1488855369.560620, -1.385986, -0.171387, +0.031616, -85.869514, -118.322693, +140.003326 
1488855369.564532, 1488855369.564532, -1.325317, +0.851562, +0.334473, +40.091789, -105.047546, +212.909821 
1488855369.568290, 1488855369.568290, -1.325317, +0.851562, +0.334473, +40.091789, -105.047546, +212.909821 
1488855369.572047, 1488855369.572047, -1.325317, +0.851562, +0.334473, +40.091789, -105.047546, +212.909821 
1488855369.575952, 1488855369.575952, -1.325317, +0.851562, +0.334473, +131.537704, -77.856384, +167.301300 
1488855369.579900, 1488855369.579900, -1.325317, +0.851562, +0.334473, +131.537704, -77.856384, +167.301300 
1488855369.583888, 1488855369.583888, -1.394653, +0.715088, +0.405884, +131.537704, -97.387634, +88.749046 
1488855369.587849, 1488855369.587849, -1.394653, +0.715088, +0.405884, +108.924187, -98.409973, +88.749046 
1488855369.591802, 1488855369.591802, -1.394653, +0.715088, +0.405884, +108.924187, -98.409973, +88.749046 
1488855369.595756, 1488855369.595756, -1.394653, +0.715088, +0.405884, +62.461174, -106.237732, +61.100121 
1488855369.599711, 1488855369.599711, -1.394653, +0.715088, +0.405884, +62.461174, -106.237732, +61.100121 
1488855369.603676, 1488855369.603676, -1.183472, +0.866455, -0.100830, +62.461174, -106.237732, +61.100121 
1488855369.607632, 1488855369.607632, -1.183472, +0.866455, -0.100830, +40.091789, -99.996887, +36.609764 
1488855369.611586, 1488855369.611586, -1.183472, +0.866455, -0.100830, +40.091789, -99.996887, +36.609764 
1488855369.615425, 1488855369.615425, -1.183472, +0.866455, -0.100830, +40.091789, -99.996887, +36.609764 
1488855369.619446, 1488855369.619446, -1.183472, +0.866455, -0.100830, +9.742058, -114.416443, +10.288353 
1488855369.623661, 1488855369.623661, -1.075684, +0.453247, -0.302002, +9.742058, -114.416443, +10.288353 
1488855369.627612, 1488855369.627612, -1.075684, +0.453247, -0.302002, +9.742058, -98.791443, +6.961937 
1488855369.631560, 1488855369.631560, -1.075684, +0.453247, -0.302002, -0.038826, -101.827942, +6.961937 
1488855369.635617, 1488855369.635617, -1.075684, +0.453247, -0.302002, -0.038826, -101.827942, +6.961937 
1488855369.639562, 1488855369.639562, -1.075684, +0.453247, -0.302002, -0.984871, -76.666199, +5.664940 
1488855369.643511, 1488855369.643511, -1.135986, -0.130737, -0.058960, -0.984871, -76.666199, +5.664940 
1488855369.647456, 1488855369.647456, -1.135986, -0.130737, -0.058960, -0.984871, -76.666199, +5.664940 
1488855369.651406, 1488855369.651406, -1.135986, -0.130737, -0.058960, +11.008537, -65.344177, +7.755394 
1488855369.655259, 1488855369.655259, -1.135986, -0.130737, -0.058960, +11.008537, -65.344177, +7.755394 
1488855369.659011, 1488855369.659011, -1.135986, -0.130737, -0.058960, +11.008537, -65.344177, +7.755394 
1488855369.662761, 1488855369.662761, -1.112549, +0.035645, -0.371216, +13.114250, -46.392757, +15.293236 
1488855369.667244, 1488855369.667244, -1.112549, +0.035645, -0.371216, +13.114250, -46.392757, +15.293236 
1488855369.670990, 1488855369.670990, -1.112549, +0.035645, -0.371216, +13.114250, -46.392757, +15.659447 
1488855369.674852, 1488855369.674852, -1.112549, +0.035645, -0.371216, +16.043938, -37.145931, +15.659447 
1488855369.678598, 1488855369.678598, -1.112549, +0.035645, -0.371216, +16.043938, -37.145931, +15.659447 
1488855369.682345, 1488855369.682345, -1.375366, +0.089355, -0.075195, +19.950188, -38.763363, +14.545555 
1488855369.686144, 1488855369.686144, -1.375366, +0.089355, -0.075195, +19.385612, -38.763363, +14.545555 
1488855369.689893, 1488855369.689893, -1.375366, +0.089355, -0.075195, +19.385612, -38.763363, +14.545555 
1488855369.693683, 1488855369.693683, -1.375366, +0.089355, -0.075195, +17.539299, -41.494686, +17.933006 
1488855369.697427, 1488855369.697427, -1.375366, +0.089355, -0.075195, +17.539299, -41.494686, +17.933006 
1488855369.701171, 1488855369.701171, -1.375366, +0.089355, -0.485840, +17.539299, -41.494686, +17.933006 
1488855369.704917, 1488855369.704917, -1.200317, +0.106079, -0.485840, +15.174187, -33.377010, +23.426170 
1488855369.708670, 1488855369.708670, -1.200317, +0.106079, -0.485840, +15.174187, -33.377010, +23.426170 
1488855369.712420, 1488855369.712420, -1.200317, +0.106079, -0.485840, +15.174187, -33.377010, +23.426170 
1488855369.716295, 1488855369.716295, -1.200317, +0.106079, -0.485840, +15.387810, -24.236998, +26.264305 
1488855369.720046, 1488855369.720046, -1.200317, +0.106079, -0.485840, +15.387810, -24.236998, +26.264305 
1488855369.723950, 1488855369.723950, -0.964478, +0.450928, -0.409424, +15.387810, -24.236998, +26.264305 
1488855369.727702, 1488855369.727702, -0.964478, +0.450928, -0.409424, +7.315910, -22.528013, +19.764061 
1488855369.731448, 1488855369.731448, -0.964478, +0.450928, -0.409424, +7.315910, -22.528013, +19.764061 
1488855369.735227, 1488855369.735227, -0.964478, +0.450928, -0.409424, +7.315910, -22.528013, +19.764061 
1488855369.738972, 1488855369.738972, -0.964478, +0.450928, -0.409424, -5.028450, -29.119810, +14.820213 
1488855369.742720, 1488855369.742720, -1.040039, +0.144043, -0.356201, -5.028450, -29.119810, +14.820213 
1488855369.746699, 1488855369.746699, -1.040039, +0.144043, -0.356201, -5.028450, -29.119810, +14.820213 
1488855369.750652, 1488855369.750652, -1.040039, +0.144043, -0.356201, -11.009895, -31.606993, +15.079613 
1488855369.754533, 1488855369.754533, -1.040039, +0.144043, -0.356201, -11.009895, -31.606993, +15.079613 
1488855369.758284, 1488855369.758284, -1.040039, +0.144043, -0.356201, -11.009895, -39.419491, +17.307396 
1488855369.762039, 1488855369.762039, -1.105469, +0.044434, -0.339722, -12.108528, -38.320858, +17.307396 
1488855369.765945, 1488855369.765945, -1.105469, +0.044434, -0.339722, -12.108528, -38.320858, +17.307396 
1488855369.769895, 1488855369.769895, -1.105469, +0.044434, -0.339722, -11.864388, -44.714291, +19.657249 
1488855369.773885, 1488855369.773885, -1.105469, +0.044434, -0.339722, -11.864388, -44.714291, +19.657249 
1488855369.777842, 1488855369.777842, -1.105469, +0.044434, -0.339722, -11.864388, -44.714291, +19.657249 
1488855369.782127, 1488855369.782127, -0.992676, +0.222778, -0.385132, -14.290535, -53.594906, +22.480125 
1488855369.786514, 1488855369.786514, -0.992676, +0.222778, -0.385132, -14.290535, -53.594906, +22.480125 
1488855369.790462, 1488855369.790462, -0.992676, +0.222778, -0.385132, -14.290535, -53.594906, +24.692650 
1488855369.794416, 1488855369.794416, -0.992676, +0.222778, -0.385132, -19.325935, -60.430843, +24.692650 
1488855369.798365, 1488855369.798365, -0.992676, +0.222778, -0.385132, -19.325935, -60.430843, +24.692650 
1488855369.802312, 1488855369.802312, -0.993042, +0.290894, -0.369995, -20.729744, -64.810120, +26.844139 
1488855369.806144, 1488855369.806144, -0.993042, +0.290894, -0.369995, -20.729744, -64.810120, +26.844139 
1488855369.809902, 1488855369.809902, -0.993042, +0.290894, -0.369995, -20.729744, -64.810120, +26.844139 
1488855369.813695, 1488855369.813695, -0.993042, +0.290894, -0.369995, -21.782600, -66.183411, +26.508446 
1488855369.817451, 1488855369.817451, -0.993042, +0.290894, -0.369995, -21.782600, -66.183411, +26.508446 
1488855369.821202, 1488855369.821202, -1.214722, +0.489990, -0.222900, -21.782600, -66.183411, +26.508446 
1488855369.825012, 1488855369.825012, -1.214722, +0.489990, -0.222900, -24.361336, -64.306580, +28.553123 
1488855369.828759, 1488855369.828759, -1.214722, +0.489990, -0.222900, -24.361336, -64.306580, +28.553123 
1488855369.832521, 1488855369.832521, -1.214722, +0.489990, -0.222900, -24.361336, -64.306580, +28.553123 
1488855369.836443, 1488855369.836443, -1.214722, +0.489990, -0.222900, -30.464851, -62.155087, +23.944969 
1488855369.840197, 1488855369.840197, -1.214722, +0.489990, -0.046021, -30.464851, -62.155087, +23.944969 
1488855369.844021, 1488855369.844021, -1.348999, +0.484497, -0.046021, -30.464851, -62.155087, +23.944969 
1488855369.847974, 1488855369.847974, -1.348999, +0.484497, -0.046021, -41.573250, -63.589413, +21.457787 
1488855369.851924, 1488855369.851924, -1.348999, +0.484497, -0.046021, -41.573250, -63.589413, +21.457787 
1488855369.855780, 1488855369.855780, -1.348999, +0.484497, -0.046021, -41.573250, -63.589413, +21.457787 
1488855369.859537, 1488855369.859537, -1.348999, +0.484497, -0.046021, -54.665291, -69.250427, +19.641991 
1488855369.863335, 1488855369.863335, -1.197754, +0.143677, -0.227783, -54.665291, -69.250427, +19.641991 
1488855369.867273, 1488855369.867273, -1.197754, +0.143677, -0.227783, -54.665291, -74.865662, +17.719383 
1488855369.871228, 1488855369.871228, -1.197754, +0.143677, -0.227783, -60.539925, -74.865662, +17.719383 
1488855369.875193, 1488855369.875193, -1.197754, +0.143677, -0.227783, -60.539925, -74.865662, +17.719383 
1488855369.879151, 1488855369.879151, -1.197754, +0.143677, -0.227783, -56.175911, -81.899963, +19.397850 
1488855369.883115, 1488855369.883115, -1.170288, -0.002075, -0.253540, -56.175911, -81.899963, +19.397850 
1488855369.887074, 1488855369.887074, -1.170288, -0.002075, -0.253540, -56.175911, -81.899963, +19.397850 
1488855369.891025, 1488855369.891025, -1.170288, -0.002075, -0.253540, -44.197762, -90.170227, +22.968407 
1488855369.894990, 1488855369.894990, -1.170288, -0.002075, -0.253540, -44.197762, -90.170227, +22.968407 
1488855369.898956, 1488855369.898956, -1.170288, -0.002075, -0.253540, -44.197762, -90.170227, +26.874657 
1488855369.903463, 1488855369.903463, -1.390991, +0.171387, -0.318481, -31.258308, -98.379456, +28.339500 
1488855369.907219, 1488855369.907219, -1.390991, +0.171387, -0.318481, -31.258308, -98.379456, +28.339500 
1488855369.910967, 1488855369.910967, -1.390991, +0.171387, -0.318481, -23.445808, -105.429016, +31.971092 
1488855369.914819, 1488855369.914819, -1.390991, +0.171387, -0.318481, -24.407112, -105.429016, +31.971092 
1488855369.918773, 1488855369.918773, -1.390991, +0.171387, -0.318481, -24.407112, -105.429016, +31.971092 
1488855369.922718, 1488855369.922718, -1.628296, +0.258667, -0.475586, -23.125374, -112.783752, +35.480614 
1488855369.926715, 1488855369.926715, -1.628296, +0.258667, -0.475586, -23.125374, -112.783752, +35.480614 
1488855369.930770, 1488855369.930770, -1.628296, +0.258667, -0.475586, -23.125374, -112.783752, +35.480614 
1488855369.934659, 1488855369.934659, -1.628296, +0.258667, -0.475586, -25.231087, -121.389709, +40.165062 
1488855369.938405, 1488855369.938405, -1.628296, +0.258667, -0.475586, -25.231087, -121.389709, +40.165062 
1488855369.942155, 1488855369.942155, -1.812500, -0.066650, -0.520508, -25.231087, -121.389709, +40.165062 
1488855369.945960, 1488855369.945960, -1.812500, -0.066650, -0.520508, -30.617439, -131.155334, +42.072411 
1488855369.949717, 1488855369.949717, -1.812500, -0.066650, -0.520508, -30.617439, -131.155334, +42.072411 
1488855369.953611, 1488855369.953611, -1.812500, -0.066650, -0.520508, -30.617439, -131.155334, +42.072411 
1488855369.957362, 1488855369.957362, -1.812500, -0.066650, -0.520508, -33.028328, -142.690979, +45.383568 
1488855369.961122, 1488855369.961122, -1.940186, -0.271606, -0.517090, -33.028328, -142.690979, +45.383568 
1488855369.965046, 1488855369.965046, -1.940186, -0.271606, -0.517090, -33.028328, -154.409729, +50.037498 
1488855369.968976, 1488855369.968976, -1.940186, -0.271606, -0.517090, -31.700813, -154.379211, +50.037498 
1488855369.972897, 1488855369.972897, -1.940186, -0.271606, -0.517090, -31.700813, -154.379211, +50.037498 
1488855369.976933, 1488855369.976933, -1.940186, -0.271606, -0.517090, -33.074104, -164.388977, +55.484886 
1488855369.980699, 1488855369.980699, -2.053711, +0.044067, -0.785889, -33.074104, -164.388977, +55.484886 
1488855369.984630, 1488855369.984630, -2.053711, +0.044067, -0.785889, -33.074104, -164.388977, +55.484886 
1488855369.989328, 1488855369.989328, -2.053711, +0.044067, -0.785889, -51.308357, -173.574768, +57.438011 
1488855369.993143, 1488855369.993143, -2.053711, +0.044067, -0.785889, -51.308357, -173.574768, +57.438011 
1488855369.996904, 1488855369.996904, -2.053711, +0.044067, -0.785889, -51.308357, -173.574768, +57.438011 
1488855370.000646, 1488855370.000646, -1.979370, -0.569092, -1.343384, -86.388313, -180.303894, +49.762840 
1488855370.004441, 1488855370.004441, -1.979370, -0.569092, -1.343384, -86.388313, -180.303894, +49.762840 
1488855370.008180, 1488855370.008180, -1.979370, -0.569092, -1.343384, -86.388313, -180.303894, +34.137840 
1488855370.011921, 1488855370.011921, -1.979370, -0.569092, -1.343384, -114.021980, -188.589417, +36.838646 
1488855370.015680, 1488855370.015680, -1.979370, -0.569092, -1.343384, -114.021980, -188.589417, +36.838646 
1488855370.019422, 1488855370.019422, -2.396240, -0.749634, -1.386353, -114.021980, -188.589417, +38.654442 
1488855370.023242, 1488855370.023242, -2.396240, -0.749634, -1.386353, -109.398567, -200.964294, +38.654442 
1488855370.026984, 1488855370.026984, -2.396240, -0.749634, -1.386353, -109.398567, -200.964294, +38.654442 
1488855370.030729, 1488855370.030729, -2.396240, -0.749634, -1.386353, -109.398567, -205.938660, +43.110008 
1488855370.034559, 1488855370.034559, -2.396240, -0.749634, -1.386353, -99.861824, -205.938660, +43.110008 
1488855370.038300, 1488855370.038300, -2.396240, -0.749634, -1.073853, -99.861824, -205.938660, +43.110008 
1488855370.042048, 1488855370.042048, -2.381470, -0.567627, -1.074219, -87.563240, -210.256897, +51.532860 
1488855370.045894, 1488855370.045894, -2.381470, -0.567627, -1.074219, -87.563240, -210.256897, +51.532860 
1488855370.049647, 1488855370.049647, -2.381470, -0.567627, -1.074219, -87.563240, -210.256897, +51.532860 
1488855370.053397, 1488855370.053397, -2.381470, -0.567627, -1.074219, -81.322395, -212.423645, +63.160057 
1488855370.057139, 1488855370.057139, -2.381470, -0.567627, -1.074219, -81.322395, -212.423645, +63.160057 
1488855370.060884, 1488855370.060884, -2.098511, +0.105347, -1.595215, -81.322395, -212.423645, +63.160057 
1488855370.064760, 1488855370.064760, -2.098511, +0.105347, -1.595215, -83.092415, -195.516907, +48.465843 
1488855370.068708, 1488855370.068708, -2.098511, +0.105347, -1.595215, -83.092415, -195.516907, +48.465843 
1488855370.072659, 1488855370.072659, -2.098511, +0.105347, -1.595215, -83.092415, -195.516907, +48.465843 
1488855370.076730, 1488855370.076730, -2.098511, +0.105347, -1.595215, -110.069954, -160.070740, +47.245140 
1488855370.080685, 1488855370.080685, -1.894165, +0.482910, -1.171753, -110.069954, -160.070740, +47.245140 
1488855370.084812, 1488855370.084812, -1.894165, +0.482910, -1.171753, -110.069954, -132.726990, +41.080589 
1488855370.088777, 1488855370.088777, -1.894165, +0.482910, -1.171753, -118.019783, -130.270325, +41.080589 
1488855370.092745, 1488855370.092745, -1.894165, +0.482910, -1.171753, -118.019783, -130.270325, +41.080589 
1488855370.096560, 1488855370.096560, -1.894165, +0.482910, -1.171753, -93.910896, -119.390808, +42.041893 
1488855370.100305, 1488855370.100305, -1.588135, +1.123413, -0.145386, -93.910896, -119.390808, +42.041893 
1488855370.104078, 1488855370.104078, -1.588135, +1.123413, -0.145386, -93.910896, -119.390808, +42.041893 
1488855370.107825, 1488855370.107825, -1.588135, +1.123413, -0.145386, -65.483772, -117.101990, +48.847313 
1488855370.111574, 1488855370.111574, -1.588135, +1.123413, -0.145386, -65.483772, -117.101990, +48.847313 
1488855370.115372, 1488855370.115372, -1.588135, +1.123413, -0.145386, -65.483772, -117.101990, +48.847313 
1488855370.119122, 1488855370.119122, -0.933105, +0.360718, +0.975708, -42.626106, -126.898132, +21.625633 
1488855370.122872, 1488855370.122872, -0.933105, +0.360718, +0.975708, -42.626106, -126.898132, +21.625633 
1488855370.126622, 1488855370.126622, -0.933105, +0.360718, +0.975708, -42.626106, -126.898132, +21.625633 
1488855370.130371, 1488855370.130371, -0.933105, +0.360718, +0.975708, +8.857048, -93.267761, -14.247780 
1488855370.134197, 1488855370.134197, -0.933105, +0.360718, +0.975708, +8.857048, -93.267761, -14.247780 
1488855370.137953, 1488855370.137953, -0.933105, -0.139282, -0.859619, +8.857048, -93.267761, -14.247780 
1488855370.141698, 1488855370.141698, -0.001709, -0.138916, -0.859619, +47.309196, -6.796202, -30.071144 
1488855370.145639, 1488855370.145639, -0.001709, -0.138916, -0.859619, +47.309196, -6.796202, -30.071144 
1488855370.149395, 1488855370.149395, -0.001709, -0.138916, -0.859619, +47.309196, -6.796202, -30.071144 
1488855370.153204, 1488855370.153204, -0.001709, -0.138916, -0.859619, +84.723747, +44.473331, -27.126198 
1488855370.157120, 1488855370.157120, -0.001709, -0.138916, -0.859619, +84.723747, +44.473331, -27.126198 
1488855370.161039, 1488855370.161039, +0.073608, +0.077759, -0.762695, +84.723747, +79.629578, -39.394264 
1488855370.164972, 1488855370.164972, +0.073608, +0.077759, -0.762695, +110.266960, +79.919495, -39.394264 
1488855370.168887, 1488855370.168887, +0.073608, +0.077759, -0.762695, +110.266960, +79.919495, -39.394264 
1488855370.172813, 1488855370.172813, +0.073608, +0.077759, -0.762695, +92.322624, +116.540588, -65.730934 
1488855370.176710, 1488855370.176710, +0.073608, +0.077759, -0.762695, +92.322624, +116.540588, -65.730934 
1488855370.180705, 1488855370.180705, +0.198120, +0.465576, -0.443237, +92.322624, +116.540588, -65.730934 
1488855370.184623, 1488855370.184623, +0.198120, +0.465576, -0.443237, +43.006218, +144.555725, -88.085060 
1488855370.188446, 1488855370.188446, +0.198120, +0.465576, -0.443237, +43.006218, +144.555725, -88.085060 
1488855370.192200, 1488855370.192200, +0.198120, +0.465576, -0.443237, +43.006218, +144.555725, -88.085060 
1488855370.196132, 1488855370.196132, +0.198120, +0.465576, -0.443237, -5.425179, +170.007385, -104.808693 
1488855370.200172, 1488855370.200172, +0.130615, +0.220215, -0.668335, -5.425179, +170.007385, -104.808693 
1488855370.204537, 1488855370.204537, +0.130615, +0.220215, -0.668335, -5.425179, +170.007385, -114.391212 
1488855370.208288, 1488855370.208288, +0.130615, +0.220215, -0.668335, -33.928596, +203.515686, -114.391212 
1488855370.212031, 1488855370.212031, +0.130615, +0.220215, -0.668335, -33.928596, +203.515686, -114.391212 
1488855370.215818, 1488855370.215818, +0.130615, +0.220215, -0.668335, -33.928596, +238.916077, -118.541603 
1488855370.219565, 1488855370.219565, -0.092529, -0.135376, -0.621704, -40.444099, +238.916077, -118.541603 
1488855370.223427, 1488855370.223427, -0.092529, -0.135376, -0.621704, -40.444099, +238.916077, -118.541603 
1488855370.227204, 1488855370.227204, -0.092529, -0.135376, -0.621704, -22.637093, +265.924133, -120.342140 
1488855370.230953, 1488855370.230953, -0.092529, -0.135376, -0.621704, -22.637093, +265.924133, -120.342140 
1488855370.234713, 1488855370.234713, -0.092529, -0.135376, -0.621704, -22.637093, +265.924133, -120.342140 
1488855370.238462, 1488855370.238462, -0.335327, -0.199707, -0.546265, -0.878060, +287.423767, -122.203712 
1488855370.242198, 1488855370.242198, -0.335327, -0.199707, -0.546265, -0.878060, +287.423767, -122.203712 
1488855370.245999, 1488855370.245999, -0.335327, -0.199707, -0.546265, -0.878060, +287.423767, -122.203712 
1488855370.249745, 1488855370.249745, -0.335327, -0.199707, -0.546265, +7.117546, +305.886902, -122.478371 
1488855370.253624, 1488855370.253624, -0.335327, -0.199707, -0.546265, +7.117546, +305.886902, -122.478371 
1488855370.257377, 1488855370.257377, -0.710327, -0.116089, -0.482788, +7.117546, +305.886902, -122.478371 
1488855370.261123, 1488855370.261123, -0.701660, -0.116089, -0.482788, +9.726799, +319.589294, -120.983009 
1488855370.265149, 1488855370.265149, -0.701660, -0.116089, -0.482788, +9.726799, +319.589294, -120.983009 
1488855370.269093, 1488855370.269093, -0.701660, -0.116089, -0.482788, +9.726799, +319.589294, -120.983009 
1488855370.273049, 1488855370.273049, -0.701660, -0.116089, -0.482788, +15.433586, +330.758728, -120.845680 
1488855370.276992, 1488855370.276992, -0.701660, -0.182861, -0.551392, +15.433586, +330.758728, -120.845680 
1488855370.280941, 1488855370.280941, -0.926758, -0.182861, -0.551392, +15.433586, +346.383728, -120.067482 
1488855370.284808, 1488855370.284808, -0.926758, -0.182861, -0.551392, +28.403557, +344.506897, -120.067482 
1488855370.288560, 1488855370.288560, -0.926758, -0.182861, -0.551392, +28.403557, +344.506897, -120.067482 
1488855370.292313, 1488855370.292313, -0.926758, -0.182861, -0.551392, +45.966423, +359.277405, -117.992287 
1488855370.296240, 1488855370.296240, -0.926758, -0.182861, -0.551392, +45.966423, +359.277405, -117.992287 
1488855370.300190, 1488855370.300190, -1.209717, -0.264526, -0.551270, +45.966423, +359.277405, -117.992287 
1488855370.304152, 1488855370.304152, -1.209717, -0.264526, -0.551270, +61.637199, +374.154724, -116.802101 
1488855370.308105, 1488855370.308105, -1.209717, -0.264526, -0.551270, +61.637199, +374.154724, -116.802101 
1488855370.312049, 1488855370.312049, -1.209717, -0.264526, -0.551270, +61.637199, +374.154724, -116.802101 
1488855370.316011, 1488855370.316011, -1.209717, -0.264526, -0.676270, +74.851311, +388.955750, -116.161232 
1488855370.320187, 1488855370.320187, -1.642212, -0.072998, -0.675415, +74.851311, +388.955750, -116.161232 
1488855370.324412, 1488855370.324412, -1.642212, -0.072998, -0.675415, +74.851311, +404.580750, -117.244606 
1488855370.328368, 1488855370.328368, -1.642212, -0.072998, -0.675415, +85.837639, +401.849426, -117.244606 
1488855370.332313, 1488855370.332313, -1.642212, -0.072998, -0.675415, +85.837639, +401.849426, -117.244606 
1488855370.336149, 1488855370.336149, -1.642212, -0.072998, -0.846069, +92.353142, +411.096252, -122.020607 
1488855370.339899, 1488855370.339899, -2.191162, +0.186523, -0.846069, +92.353142, +411.096252, -122.020607 
1488855370.343724, 1488855370.343724, -2.191162, +0.186523, -0.846069, +92.353142, +411.096252, -122.020607 
1488855370.347676, 1488855370.347676, -2.191162, +0.186523, -0.846069, +97.419060, +413.522400, -125.392799 
1488855370.351617, 1488855370.351617, -2.191162, +0.186523, -0.846069, +97.419060, +413.522400, -125.392799 
1488855370.355456, 1488855370.355456, -2.191162, +0.186523, -0.846069, +97.419060, +413.522400, -125.392799 
1488855370.359207, 1488855370.359207, -2.885132, +0.458496, -0.690308, +104.499138, +407.937683, -123.531227 
1488855370.363008, 1488855370.363008, -2.885132, +0.458496, -0.690308, +104.499138, +407.937683, -123.531227 
1488855370.366756, 1488855370.366756, -2.885132, +0.458496, -0.690308, +104.499138, +407.937683, -123.531227 
1488855370.370622, 1488855370.370622, -2.885132, +0.458496, -0.690308, +124.228752, +397.073425, -113.399391 
1488855370.374553, 1488855370.374553, -2.885132, +0.458496, -0.690308, +124.228752, +397.073425, -113.399391 
1488855370.378303, 1488855370.378303, -3.365601, +0.452637, -0.280762, +124.228752, +397.073425, -113.399391 
1488855370.382061, 1488855370.382061, -3.365601, +0.452637, -0.280762, +161.444931, +381.570496, -99.208717 
1488855370.385947, 1488855370.385947, -3.365601, +0.452637, -0.280762, +161.444931, +381.570496, -99.208717 
1488855370.389708, 1488855370.389708, -3.365601, +0.452637, -0.280762, +161.444931, +381.570496, -86.467628 
1488855370.393516, 1488855370.393516, -3.365601, +0.452637, -0.280762, +200.660019, +356.591858, -86.467628 
1488855370.397446, 1488855370.397446, -3.318970, +1.057373, +0.106689, +200.660019, +356.591858, -86.467628 
1488855370.401363, 1488855370.401363, -3.318970, +1.057373, +0.106689, +225.058823, +323.190369, -65.868263 
1488855370.405300, 1488855370.405300, -3.318970, +1.057373, +0.106689, +225.058823, +323.190369, -65.868263 
