Calculating the offsets...
timestamp_before, timestamp_after, accel_x, accel_y, accel_z, gyro_x, gyro_y, gyro_z
1494299206.087151, 1494299206.087151, -1.124756, +0.074585, -0.089111, -13.116814, +0.616999, -7.511252 
1494299206.099656, 1494299206.099656, -1.124756, +0.074585, -0.089111, -13.116814, +0.616999, -7.328147 
1494299206.104275, 1494299206.104275, -1.124756, +0.074585, -0.089111, -12.628532, +0.723810, -7.328147 
1494299206.108256, 1494299206.108256, -1.124756, +0.083984, -0.089233, -12.628532, +0.723810, -7.328147 
1494299206.112182, 1494299206.112182, -1.122192, +0.083984, -0.089233, -12.094475, +1.044245, -7.816428 
1494299206.116098, 1494299206.116098, -1.122192, +0.083984, -0.089233, -12.094475, +1.044245, -7.816428 
1494299206.119980, 1494299206.119980, -1.122192, +0.083984, -0.089233, -12.094475, +1.044245, -7.816428 
1494299206.123941, 1494299206.123941, -1.122192, +0.083984, -0.089233, -12.369133, +0.952692, -7.755393 
1494299206.127715, 1494299206.127715, -1.122192, +0.087280, -0.089966, -12.369133, +0.952692, -7.755393 
1494299206.131468, 1494299206.131468, -1.121094, +0.087280, -0.089966, -12.369133, +0.952692, -7.755393 
1494299206.135355, 1494299206.135355, -1.121094, +0.087280, -0.089966, -12.582756, +1.028986, -8.258933 
1494299206.139110, 1494299206.139110, -1.121094, +0.087280, -0.089966, -12.582756, +1.028986, -8.258933 
1494299206.142860, 1494299206.142860, -1.121094, +0.087280, -0.089966, -12.582756, +1.028986, -8.258933 
1494299206.146667, 1494299206.146667, -1.121094, +0.087280, -0.089966, -13.162590, +1.166315, -8.518332 
1494299206.150417, 1494299206.150417, -1.125244, +0.076904, -0.092407, -13.162590, +1.166315, -8.518332 
1494299206.154170, 1494299206.154170, -1.125244, +0.076904, -0.092407, -13.162590, +1.166315, -8.167380 
1494299206.158243, 1494299206.158243, -1.125244, +0.076904, -0.092407, -13.162590, +1.364679, -8.167380 
1494299206.162179, 1494299206.162179, -1.125244, +0.076904, -0.092407, -13.162590, +1.364679, -8.167380 
1494299206.166127, 1494299206.166127, -1.125244, +0.076904, -0.092407, -13.025261, +1.288385, -8.609885 
1494299206.170065, 1494299206.170065, -1.121826, +0.079834, -0.091919, -13.025261, +1.288385, -8.609885 
1494299206.174010, 1494299206.174010, -1.121826, +0.079834, -0.091919, -13.025261, +1.288385, -8.609885 
1494299206.177951, 1494299206.177951, -1.121826, +0.079834, -0.091919, -12.689568, +1.334162, -8.487815 
1494299206.181892, 1494299206.181892, -1.121826, +0.079834, -0.091919, -12.689568, +1.334162, -8.487815 
1494299206.185783, 1494299206.185783, -1.121826, +0.079834, -0.091919, -12.689568, +1.334162, -8.487815 
1494299206.189527, 1494299206.189527, -1.125244, +0.073608, -0.092773, -13.010002, +1.547785, -8.716697 
1494299206.193275, 1494299206.193275, -1.125244, +0.073608, -0.092773, -13.010002, +1.547785, -8.716697 
1494299206.197217, 1494299206.197217, -1.125244, +0.073608, -0.092773, -13.010002, +1.547785, -8.716697 
1494299206.201167, 1494299206.201167, -1.125244, +0.073608, -0.092773, -12.552238, +1.502008, -8.701438 
1494299206.205111, 1494299206.205111, -1.125244, +0.073608, -0.092773, -12.552238, +1.502008, -8.701438 
1494299206.209052, 1494299206.209052, -1.119019, +0.076904, -0.087402, -12.552238, +1.379938, -8.381003 
1494299206.213036, 1494299206.213036, -1.119019, +0.076904, -0.087402, -12.598015, +1.379938, -8.381003 
1494299206.217016, 1494299206.217016, -1.119019, +0.076904, -0.087402, -12.598015, +1.379938, -8.381003 
1494299206.220956, 1494299206.220956, -1.119019, +0.076904, -0.087402, -13.177849, +1.898737, -8.274192 
1494299206.224909, 1494299206.224909, -1.119019, +0.076904, -0.087402, -13.177849, +1.898737, -8.274192 
1494299206.228865, 1494299206.228865, -1.121094, +0.073120, -0.091431, -13.177849, +1.898737, -8.274192 
1494299206.232813, 1494299206.232813, -1.121094, +0.073120, -0.091431, -12.735344, +2.036066, -8.182639 
1494299206.236691, 1494299206.236691, -1.121094, +0.073120, -0.091431, -12.735344, +2.036066, -8.182639 
1494299206.240445, 1494299206.240445, -1.121094, +0.073120, -0.091431, -12.735344, +2.036066, -8.182639 
1494299206.244344, 1494299206.244344, -1.121094, +0.073120, -0.091431, -12.460686, +1.929254, -8.152122 
1494299206.248088, 1494299206.248088, -1.123535, +0.070435, -0.088379, -12.460686, +1.929254, -8.152122 
1494299206.251832, 1494299206.251832, -1.123535, +0.070435, -0.088379, -12.460686, +1.929254, -12.058372 
1494299206.255598, 1494299206.255598, -1.123535, +0.070435, -0.088379, -12.277580, +1.883478, -8.472556 
1494299206.259339, 1494299206.259339, -1.123535, +0.070435, -0.088379, -12.277580, +1.883478, -8.472556 
1494299206.263088, 1494299206.263088, -1.123535, +0.070435, -0.088379, -12.277580, +1.883478, -8.365745 
1494299206.266986, 1494299206.266986, -1.123535, +0.076904, -0.092407, -12.521721, +1.730890, -8.365745 
1494299206.270732, 1494299206.270732, -1.123657, +0.076904, -0.092407, -12.521721, +1.730890, -8.365745 
1494299206.274641, 1494299206.274641, -1.123657, +0.076904, -0.092407, -13.635612, +1.471491, -8.243674 
1494299206.278577, 1494299206.278577, -1.123657, +0.076904, -0.092407, -13.635612, +1.471491, -8.243674 
1494299206.282521, 1494299206.282521, -1.123657, +0.076904, -0.092407, -13.635612, +1.471491, -8.243674 
1494299206.286370, 1494299206.286370, -1.123657, +0.076904, -0.089722, -13.788200, +1.624079, -8.197898 
1494299206.290122, 1494299206.290122, -1.121948, +0.079224, -0.089722, -13.788200, +1.624079, -8.197898 
1494299206.293864, 1494299206.293864, -1.121948, +0.079224, -0.089722, -13.788200, +1.624079, -8.197898 
1494299206.297942, 1494299206.297942, -1.121948, +0.079224, -0.089722, -13.467766, +1.395197, -8.304709 
1494299206.301693, 1494299206.301693, -1.121948, +0.079224, -0.089722, -13.467766, +1.395197, -8.304709 
1494299206.305609, 1494299206.305609, -1.121948, +0.079224, -0.089722, -13.467766, +1.395197, -8.304709 
1494299206.309491, 1494299206.309491, -1.121216, +0.080078, -0.088745, -14.139153, +1.471491, -8.716697 
1494299206.314023, 1494299206.314023, -1.121216, +0.080078, -0.088745, -14.139153, +1.471491, -8.716697 
1494299206.317976, 1494299206.317976, -1.121216, +0.080078, -0.088745, -14.139153, +1.257868, -8.899802 
1494299206.321924, 1494299206.321924, -1.121216, +0.080078, -0.088745, -14.047600, +1.257868, -8.899802 
1494299206.325808, 1494299206.325808, -1.121216, +0.080078, -0.091064, -14.047600, +1.257868, -8.899802 
1494299206.329548, 1494299206.329548, -1.123535, +0.077637, -0.091064, -14.337517, +1.105280, -9.266013 
1494299206.333287, 1494299206.333287, -1.123535, +0.077637, -0.091064, -14.337517, +1.105280, -9.266013 
1494299206.337228, 1494299206.337228, -1.123535, +0.077637, -0.091064, -14.337517, +1.105280, -9.266013 
1494299206.341175, 1494299206.341175, -1.123535, +0.077637, -0.091064, -14.398552, +0.891657, -9.311790 
1494299206.345090, 1494299206.345090, -1.123535, +0.077637, -0.091064, -14.398552, +0.891657, -9.311790 
1494299206.348837, 1494299206.348837, -1.121704, +0.068970, -0.093506, -14.398552, +0.891657, -9.311790 
1494299206.352581, 1494299206.352581, -1.121704, +0.068970, -0.093506, -14.215446, +1.242609, -9.067649 
1494299206.356472, 1494299206.356472, -1.121704, +0.068970, -0.093506, -14.215446, +1.242609, -9.067649 
1494299206.360215, 1494299206.360215, -1.121704, +0.068970, -0.093506, -14.215446, +1.242609, -9.067649 
1494299206.363960, 1494299206.363960, -1.121704, +0.068970, -0.093506, -13.849236, +1.242609, -9.006614 
1494299206.367809, 1494299206.367809, -1.120239, +0.066772, -0.090698, -13.849236, +1.242609, -9.006614 
1494299206.371551, 1494299206.371551, -1.120239, +0.066772, -0.090698, -13.849236, +1.242609, -9.006614 
1494299206.375384, 1494299206.375384, -1.120239, +0.066772, -0.090698, -13.223625, +0.876398, -9.067649 
1494299206.379314, 1494299206.379314, -1.120239, +0.066772, -0.090698, -13.223625, +0.876398, -9.067649 
1494299206.383240, 1494299206.383240, -1.120239, +0.066772, -0.090698, -13.223625, +1.059503, -9.021873 
1494299206.387242, 1494299206.387242, -1.122681, +0.064819, -0.089722, -12.399651, +1.059503, -9.021873 
1494299206.391121, 1494299206.391121, -1.122681, +0.064819, -0.089722, -12.399651, +1.059503, -9.021873 
1494299206.395157, 1494299206.395157, -1.122681, +0.064819, -0.089722, -11.606194, +1.151056, -9.082908 
1494299206.399103, 1494299206.399103, -1.122681, +0.064819, -0.089722, -11.606194, +1.151056, -9.082908 
1494299206.403047, 1494299206.403047, -1.122681, +0.064819, -0.089722, -11.606194, +1.151056, -9.082908 
1494299206.406953, 1494299206.406953, -1.129028, +0.083862, -0.093750, -11.407829, +1.288385, -9.006614 
1494299206.410697, 1494299206.410697, -1.129028, +0.083862, -0.093750, -11.407829, +1.288385, -9.006614 
1494299206.414559, 1494299206.414559, -1.129028, +0.083862, -0.093750, -11.407829, +1.288385, -9.006614 
1494299206.418359, 1494299206.418359, -1.129028, +0.083862, -0.093750, -13.071037, +0.967951, -8.655662 
1494299206.422200, 1494299206.422200, -1.129028, +0.083862, -0.093750, -13.071037, +0.967951, -8.655662 
1494299206.426088, 1494299206.426088, -1.121704, +0.073120, -0.094116, -13.071037, +0.967951, -4.749412 
1494299206.430031, 1494299206.430031, -1.121704, +0.073120, -0.094116, -14.551140, +1.105280, -8.243674 
1494299206.433981, 1494299206.433981, -1.121704, +0.073120, -0.094116, -14.551140, +1.105280, -8.243674 
1494299206.437928, 1494299206.437928, -1.121704, +0.073120, -0.094116, -14.932610, +0.983209, -8.411521 
1494299206.441875, 1494299206.441875, -1.121704, +0.073120, -0.094116, -14.932610, +0.983209, -8.411521 
1494299206.445828, 1494299206.445828, -1.124878, +0.072021, -0.090332, -14.932610, +0.983209, -8.411521 
1494299206.449772, 1494299206.449772, -1.124878, +0.072021, -0.090332, -15.207268, +0.983209, -8.594626 
1494299206.453721, 1494299206.453721, -1.124878, +0.072021, -0.090332, -15.207268, +0.983209, -8.594626 
1494299206.457509, 1494299206.457509, -1.124878, +0.072021, -0.090332, -15.207268, +0.983209, -8.594626 
1494299206.461266, 1494299206.461266, -1.124878, +0.072021, -0.090332, -14.642693, +0.800104, -8.472556 
1494299206.465148, 1494299206.465148, -1.124878, +0.072998, -0.089844, -14.642693, +0.800104, -8.472556 
1494299206.468905, 1494299206.468905, -1.118530, +0.072998, -0.089844, -14.642693, +0.800104, -8.472556 
1494299206.472654, 1494299206.472654, -1.118530, +0.072998, -0.089844, -15.008904, +0.998468, -8.960837 
1494299206.476704, 1494299206.476704, -1.118530, +0.072998, -0.089844, -15.008904, +0.998468, -8.960837 
1494299206.480458, 1494299206.480458, -1.118530, +0.072998, -0.089844, -15.008904, +0.998468, -8.960837 
1494299206.484198, 1494299206.484198, -1.118530, +0.072998, -0.089844, -14.352776, +0.937433, -9.067649 
1494299206.488091, 1494299206.488091, -1.122437, +0.075073, -0.084106, -14.352776, +0.937433, -9.067649 
1494299206.491834, 1494299206.491834, -1.122437, +0.075073, -0.084106, -14.352776, +0.937433, -9.220237 
1494299206.495662, 1494299206.495662, -1.122437, +0.075073, -0.084106, -14.429070, +1.044245, -9.220237 
1494299206.499408, 1494299206.499408, -1.122437, +0.075073, -0.084106, -14.429070, +1.044245, -9.220237 
1494299206.503159, 1494299206.503159, -1.122437, +0.075073, -0.084106, -14.429070, +1.135797, -9.113425 
1494299206.506953, 1494299206.506953, -1.122559, +0.069702, -0.088379, -13.818718, +1.135797, -9.113425 
1494299206.510696, 1494299206.510696, -1.122559, +0.069702, -0.088379, -13.818718, +1.135797, -9.113425 
1494299206.514444, 1494299206.514444, -1.122559, +0.069702, -0.088379, -13.711906, +0.861139, -9.159202 
1494299206.518192, 1494299206.518192, -1.122559, +0.069702, -0.088379, -13.711906, +0.861139, -9.159202 
1494299206.521937, 1494299206.521937, -1.122559, +0.069702, -0.088379, -13.711906, +0.861139, -9.159202 
1494299206.525750, 1494299206.525750, -1.123169, +0.061646, -0.093262, -13.559319, +1.257868, -9.067649 
1494299206.529509, 1494299206.529509, -1.123169, +0.061646, -0.093262, -13.559319, +1.257868, -9.067649 
1494299206.533261, 1494299206.533261, -1.123169, +0.061646, -0.093262, -13.559319, +1.257868, -9.067649 
1494299206.537171, 1494299206.537171, -1.123169, +0.061646, -0.093262, -13.635612, +1.074762, -8.625144 
1494299206.541124, 1494299206.541124, -1.123169, +0.061646, -0.093262, -13.635612, +1.074762, -8.625144 
1494299206.545194, 1494299206.545194, -1.122314, +0.064453, -0.088013, -13.635612, +1.074762, -8.625144 
1494299206.549149, 1494299206.549149, -1.122314, +0.064453, -0.088013, -13.528801, +1.013727, -8.228415 
1494299206.553097, 1494299206.553097, -1.122314, +0.064453, -0.088013, -13.528801, +1.013727, -8.228415 
1494299206.557057, 1494299206.557057, -1.122314, +0.064453, -0.088013, -13.528801, +1.013727, -7.984275 
1494299206.560997, 1494299206.560997, -1.122314, +0.064453, -0.088013, -13.193108, +1.181574, -7.984275 
1494299206.564959, 1494299206.564959, -1.120361, +0.070190, -0.086670, -13.193108, +1.181574, -7.984275 
1494299206.568713, 1494299206.568713, -1.120361, +0.070190, -0.086670, -13.208366, +0.754328, -7.984275 
1494299206.572468, 1494299206.572468, -1.120361, +0.070190, -0.086670, -13.208366, +0.754328, -7.984275 
1494299206.576314, 1494299206.576314, -1.120361, +0.070190, -0.086670, -13.208366, +0.754328, -7.984275 
1494299206.580246, 1494299206.580246, -1.120361, +0.070190, -0.086670, -13.605095, +0.967951, -8.411521 
1494299206.584179, 1494299206.584179, -1.120361, +0.071777, -0.085938, -13.605095, +0.967951, -8.411521 
1494299206.588112, 1494299206.588112, -1.120483, +0.071777, -0.085938, -13.605095, +0.967951, -8.411521 
1494299206.592041, 1494299206.592041, -1.120483, +0.071777, -0.085938, -14.001823, +0.937433, -8.518332 
1494299206.595998, 1494299206.595998, -1.120483, +0.071777, -0.085938, -14.001823, +0.937433, -8.518332 
1494299206.599892, 1494299206.599892, -1.120483, +0.071777, -0.085938, -14.001823, +0.937433, -8.518332 
1494299206.604177, 1494299206.604177, -1.120483, +0.072754, -0.089478, -13.589836, +1.028986, -8.747214 
1494299206.608070, 1494299206.608070, -1.121582, +0.072754, -0.089478, -13.589836, +1.028986, -8.747214 
1494299206.611815, 1494299206.611815, -1.121582, +0.072754, -0.089478, -13.589836, +1.028986, -9.220237 
1494299206.615640, 1494299206.615640, -1.121582, +0.072754, -0.089478, -13.467766, +0.784845, -9.220237 
1494299206.619386, 1494299206.619386, -1.121582, +0.072754, -0.089478, -13.467766, +0.784845, -9.220237 
1494299206.623129, 1494299206.623129, -1.121582, +0.072754, -0.089478, -13.483025, +0.952692, -9.525413 
1494299206.626933, 1494299206.626933, -1.125977, +0.070312, -0.094238, -13.483025, +0.952692, -9.525413 
1494299206.630671, 1494299206.630671, -1.125977, +0.070312, -0.094238, -13.483025, +0.952692, -9.525413 
1494299206.634416, 1494299206.634416, -1.125977, +0.070312, -0.094238, -12.628532, +0.983209, -9.586448 
1494299206.638164, 1494299206.638164, -1.125977, +0.070312, -0.094238, -12.628532, +0.983209, -9.586448 
1494299206.641909, 1494299206.641909, -1.125977, +0.070312, -0.094238, -12.628532, +0.983209, -9.586448 
1494299206.645733, 1494299206.645733, -1.120728, +0.066650, -0.087891, -12.567497, +0.616999, -9.601707 
1494299206.649671, 1494299206.649671, -1.120728, +0.066650, -0.087891, -12.567497, +0.616999, -9.601707 
1494299206.653621, 1494299206.653621, -1.120728, +0.066650, -0.087891, -12.567497, +0.616999, -9.601707 
1494299206.657574, 1494299206.657574, -1.120728, +0.066650, -0.087891, -12.155510, +0.830622, -9.555930 
1494299206.661522, 1494299206.661522, -1.120728, +0.066650, -0.087891, -12.155510, +0.830622, -9.555930 
1494299206.665428, 1494299206.665428, -1.120850, +0.062256, -0.085815, -12.155510, +0.830622, -9.555930 
1494299206.669175, 1494299206.669175, -1.120850, +0.062256, -0.085815, -11.804558, +0.494928, -9.693259 
1494299206.672920, 1494299206.672920, -1.120850, +0.062256, -0.085815, -11.804558, +0.494928, -9.693259 
1494299206.676840, 1494299206.676840, -1.120850, +0.062256, -0.085815, -11.804558, +0.494928, -9.555930 
1494299206.680790, 1494299206.680790, -1.120850, +0.062256, -0.085815, -11.499382, +0.266046, -9.555930 
1494299206.684737, 1494299206.684737, -1.127319, +0.064209, -0.085083, -11.499382, +0.266046, -9.555930 
1494299206.688690, 1494299206.688690, -1.127319, +0.064209, -0.085083, -11.651970, +0.983209, -9.601707 
1494299206.692637, 1494299206.692637, -1.127319, +0.064209, -0.085083, -11.651970, +0.983209, -9.601707 
1494299206.696728, 1494299206.696728, -1.127319, +0.064209, -0.085083, -11.651970, +0.983209, -9.601707 
1494299206.700682, 1494299206.700682, -1.127319, +0.064209, -0.085083, -11.606194, +0.967951, -9.449119 
1494299206.704630, 1494299206.704630, -1.130371, +0.066284, -0.094482, -11.606194, +0.967951, -9.449119 
1494299206.708571, 1494299206.708571, -1.130371, +0.066284, -0.094482, -11.606194, +0.967951, -9.449119 
1494299206.712513, 1494299206.712513, -1.130371, +0.066284, -0.094482, -12.552238, +1.196833, -8.869285 
1494299206.716503, 1494299206.716503, -1.130371, +0.066284, -0.094482, -12.552238, +1.196833, -8.869285 
1494299206.720260, 1494299206.720260, -1.130371, +0.066284, -0.094482, -12.552238, +1.196833, -4.963035 
1494299206.724012, 1494299206.724012, -1.119873, +0.062744, -0.089111, -14.200188, +0.998468, -8.014792 
1494299206.728166, 1494299206.728166, -1.119873, +0.062744, -0.089111, -14.200188, +0.998468, -8.014792 
1494299206.732077, 1494299206.732077, -1.119873, +0.062744, -0.089111, -14.642693, +0.815363, -7.633323 
1494299206.736329, 1494299206.736329, -1.119873, +0.062744, -0.089111, -14.642693, +0.815363, -7.633323 
1494299206.740078, 1494299206.740078, -1.119873, +0.062744, -0.089111, -14.642693, +0.815363, -7.633323 
1494299206.743826, 1494299206.743826, -1.117676, +0.066650, -0.082642, -14.444328, +1.013727, -8.014792 
1494299206.747597, 1494299206.747597, -1.117676, +0.066650, -0.082642, -14.444328, +1.013727, -8.014792 
1494299206.751336, 1494299206.751336, -1.117676, +0.066650, -0.082642, -14.444328, +1.013727, -8.014792 
1494299206.755086, 1494299206.755086, -1.117676, +0.066650, -0.082642, -14.169670, +1.242609, -8.136863 
1494299206.758822, 1494299206.758822, -1.117676, +0.066650, -0.082642, -14.169670, +1.242609, -8.136863 
1494299206.762571, 1494299206.762571, -1.117676, +0.066650, -0.083984, -14.169670, +1.242609, -8.136863 
1494299206.766362, 1494299206.766362, -1.121826, +0.067627, -0.083984, -13.757683, +1.242609, -8.411521 
1494299206.770105, 1494299206.770105, -1.121826, +0.067627, -0.083984, -13.757683, +1.242609, -8.411521 
1494299206.773841, 1494299206.773841, -1.121826, +0.067627, -0.083984, -13.757683, +1.242609, -8.411521 
1494299206.777604, 1494299206.777604, -1.121826, +0.067627, -0.083984, -13.772942, +1.395197, -8.426780 
1494299206.781354, 1494299206.781354, -1.121826, +0.067627, -0.083984, -13.772942, +1.395197, -8.426780 
1494299206.785145, 1494299206.785145, -1.123901, +0.063110, -0.087891, -13.772942, +1.395197, -8.426780 
1494299206.788898, 1494299206.788898, -1.123901, +0.063110, -0.087891, -13.559319, +1.685114, -8.884543 
1494299206.792656, 1494299206.792656, -1.123901, +0.063110, -0.087891, -13.559319, +1.685114, -8.884543 
1494299206.796604, 1494299206.796604, -1.123901, +0.063110, -0.087891, -13.559319, +1.685114, -8.884543 
1494299206.800547, 1494299206.800547, -1.123901, +0.063110, -0.087891, -13.559319, +1.608820, -8.884543 
1494299206.804546, 1494299206.804546, -1.122070, +0.058350, -0.089844, -13.559319, +1.608820, -8.884543 
1494299206.808491, 1494299206.808491, -1.122070, +0.058350, -0.089844, -13.132072, +1.181574, -8.869285 
1494299206.812433, 1494299206.812433, -1.122070, +0.058350, -0.089844, -13.132072, +1.181574, -8.869285 
1494299206.816329, 1494299206.816329, -1.122070, +0.058350, -0.089844, -13.132072, +1.181574, -8.869285 
1494299206.820072, 1494299206.820072, -1.122070, +0.058350, -0.089844, -12.689568, +1.227350, -8.960837 
1494299206.823831, 1494299206.823831, -1.120483, +0.055054, -0.085571, -12.689568, +1.227350, -8.960837 
1494299206.827743, 1494299206.827743, -1.120483, +0.055054, -0.085571, -12.689568, +1.227350, -8.960837 
1494299206.831669, 1494299206.831669, -1.120483, +0.055054, -0.085571, -11.453606, +1.090021, -9.128684 
1494299206.835601, 1494299206.835601, -1.120483, +0.055054, -0.085571, -11.453606, +1.090021, -9.128684 
1494299206.839527, 1494299206.839527, -1.120483, +0.055054, -0.085571, -11.453606, +1.090021, -9.128684 
1494299206.843453, 1494299206.843453, -1.123657, +0.055908, -0.084229, -10.354973, +0.952692, -9.037131 
1494299206.847503, 1494299206.847503, -1.123657, +0.055908, -0.084229, -10.354973, +0.952692, -9.037131 
1494299206.851772, 1494299206.851772, -1.123657, +0.055908, -0.084229, -9.759880, +1.364679, -9.311790 
1494299206.855968, 1494299206.855968, -1.123657, +0.055908, -0.084229, -9.759880, +1.364679, -9.311790 
1494299206.859708, 1494299206.859708, -1.123657, +0.055908, -0.084229, -9.759880, +1.364679, -9.311790 
1494299206.863442, 1494299206.863442, -1.119019, +0.055420, -0.086792, -7.852531, +1.654596, -9.418601 
1494299206.867185, 1494299206.867185, -1.119019, +0.055420, -0.086792, -7.852531, +1.654596, -9.418601 
1494299206.870919, 1494299206.870919, -1.119019, +0.055420, -0.086792, -7.852531, +1.654596, -9.418601 
1494299206.874653, 1494299206.874653, -1.119019, +0.055420, -0.086792, -6.845451, +1.334162, -9.891623 
1494299206.878398, 1494299206.878398, -1.119019, +0.055420, -0.086792, -6.845451, +1.334162, -9.891623 
1494299206.882134, 1494299206.882134, -1.119019, +0.059814, -0.087280, -6.845451, +1.334162, -9.891623 
1494299206.885929, 1494299206.885929, -1.120117, +0.059814, -0.087280, -5.975700, +1.151056, -10.089988 
1494299206.889670, 1494299206.889670, -1.120117, +0.059814, -0.087280, -5.975700, +1.151056, -10.089988 
1494299206.893406, 1494299206.893406, -1.120117, +0.059814, -0.087280, -5.975700, +1.151056, -10.089988 
1494299206.897241, 1494299206.897241, -1.120117, +0.059814, -0.087280, -5.792595, +1.639337, -10.013694 
1494299206.900995, 1494299206.900995, -1.120117, +0.059814, -0.087280, -5.792595, +1.639337, -10.013694 
1494299206.904916, 1494299206.904916, -1.123535, +0.072021, -0.091553, -5.792595, +1.639337, -10.013694 
1494299206.908861, 1494299206.908861, -1.123535, +0.072021, -0.091553, -6.769157, +1.761408, -9.952659 
1494299206.912806, 1494299206.912806, -1.123535, +0.072021, -0.091553, -6.769157, +1.761408, -9.952659 
1494299206.916636, 1494299206.916636, -1.123535, +0.072021, -0.091553, -6.769157, +1.761408, -10.196799 
1494299206.920547, 1494299206.920547, -1.123535, +0.072021, -0.091553, -7.455803, +1.395197, -10.196799 
1494299206.924464, 1494299206.924464, -1.128784, +0.070801, -0.092773, -7.455803, +1.395197, -10.196799 
1494299206.928352, 1494299206.928352, -1.128784, +0.070801, -0.092773, -8.920647, +1.471491, -10.028953 
1494299206.932361, 1494299206.932361, -1.128784, +0.070801, -0.092773, -8.920647, +1.471491, -10.028953 
1494299206.937018, 1494299206.937018, -1.128784, +0.070801, -0.092773, -8.920647, +1.471491, -10.028953 
1494299206.940980, 1494299206.940980, -1.128784, +0.070801, -0.092773, -9.927727, +1.288385, -9.937400 
1494299206.944928, 1494299206.944928, -1.123169, +0.056274, -0.091675, -9.927727, +1.288385, -9.937400 
1494299206.948879, 1494299206.948879, -1.123169, +0.056274, -0.091675, -9.927727, +1.288385, -9.723777 
1494299206.952833, 1494299206.952833, -1.123169, +0.056274, -0.091675, -10.217644, +1.486750, -9.723777 
1494299206.956715, 1494299206.956715, -1.123169, +0.056274, -0.091675, -10.217644, +1.486750, -9.723777 
1494299206.960466, 1494299206.960466, -1.123169, +0.056274, -0.091675, -10.217644, +1.440973, -9.449119 
1494299206.964216, 1494299206.964216, -1.122681, +0.061035, -0.088257, -10.110832, +1.440973, -9.449119 
1494299206.967980, 1494299206.967980, -1.122681, +0.061035, -0.088257, -10.110832, +1.440973, -9.449119 
1494299206.971730, 1494299206.971730, -1.122681, +0.061035, -0.088257, -11.377312, +1.273126, -9.494895 
1494299206.975487, 1494299206.975487, -1.122681, +0.061035, -0.088257, -11.377312, +1.273126, -9.494895 
1494299206.979511, 1494299206.979511, -1.122681, +0.061035, -0.088257, -11.377312, +1.273126, -9.494895 
1494299206.983253, 1494299206.983253, -1.125977, +0.058350, -0.086792, -11.926628, +1.227350, -9.296531 
1494299206.987243, 1494299206.987243, -1.125977, +0.058350, -0.086792, -11.926628, +1.227350, -9.296531 
1494299206.990984, 1494299206.990984, -1.125977, +0.058350, -0.086792, -11.926628, +1.227350, -9.296531 
1494299206.994950, 1494299206.994950, -1.125977, +0.058350, -0.086792, -12.247063, +1.395197, -9.327048 
1494299206.998693, 1494299206.998693, -1.125977, +0.058350, -0.086792, -12.247063, +1.395197, -9.327048 
1494299207.002551, 1494299207.002551, -1.121826, +0.058228, -0.090454, -12.247063, +1.395197, -9.327048 
1494299207.006341, 1494299207.006341, -1.121826, +0.058228, -0.090454, -12.445427, +0.967951, -9.052390 
1494299207.010083, 1494299207.010083, -1.121826, +0.058228, -0.090454, -12.445427, +0.967951, -9.052390 
1494299207.013826, 1494299207.013826, -1.121826, +0.058228, -0.090454, -12.445427, +0.967951, -9.052390 
1494299207.017570, 1494299207.017570, -1.121826, +0.058228, -0.090454, -12.491203, +1.013727, -9.342307 
1494299207.021315, 1494299207.021315, -1.121826, +0.059326, -0.086304, -12.491203, +1.013727, -9.342307 
1494299207.025062, 1494299207.025062, -1.120117, +0.059326, -0.086304, -12.491203, +1.013727, -9.342307 
1494299207.028815, 1494299207.028815, -1.120117, +0.059326, -0.086304, -12.887932, +0.876398, -9.510154 
1494299207.032560, 1494299207.032560, -1.120117, +0.059326, -0.086304, -12.887932, +0.876398, -9.510154 
1494299207.036467, 1494299207.036467, -1.120117, +0.059326, -0.086304, -12.887932, +0.876398, -9.830588 
1494299207.040415, 1494299207.040415, -1.120117, +0.059326, -0.084229, -13.360954, +0.876398, -9.830588 
1494299207.044369, 1494299207.044369, -1.123657, +0.060547, -0.084229, -13.360954, +0.876398, -9.830588 
1494299207.048321, 1494299207.048321, -1.123657, +0.060547, -0.084229, -13.605095, +0.449152, -10.425681 
1494299207.052295, 1494299207.052295, -1.123657, +0.060547, -0.084229, -13.605095, +0.449152, -10.425681 
1494299207.056169, 1494299207.056169, -1.123657, +0.060547, -0.084229, -13.605095, +0.449152, -10.425681 
1494299207.059922, 1494299207.059922, -1.123657, +0.060547, -0.084229, -13.528801, +0.525446, -10.471457 
1494299207.063679, 1494299207.063679, -1.122192, +0.064087, -0.086060, -13.528801, +0.525446, -10.471457 
1494299207.067643, 1494299207.067643, -1.122192, +0.064087, -0.086060, -13.528801, +0.525446, -10.471457 
1494299207.071592, 1494299207.071592, -1.122192, +0.064087, -0.086060, -13.895012, +0.647516, -10.990256 
1494299207.075544, 1494299207.075544, -1.122192, +0.064087, -0.086060, -13.895012, +0.647516, -10.990256 
1494299207.079489, 1494299207.079489, -1.122192, +0.064087, -0.086060, -13.895012, +0.647516, -10.990256 
1494299207.083442, 1494299207.083442, -1.121948, +0.052490, -0.090698, -14.413811, +0.967951, -11.112327 
1494299207.087282, 1494299207.087282, -1.121948, +0.052490, -0.090698, -14.413811, +0.967951, -11.112327 
1494299207.091032, 1494299207.091032, -1.121948, +0.052490, -0.090698, -14.413811, +0.754328, -10.929221 
1494299207.094918, 1494299207.094918, -1.121948, +0.052490, -0.090698, -14.474846, +0.754328, -10.929221 
1494299207.098676, 1494299207.098676, -1.121948, +0.052490, -0.090698, -14.474846, +0.754328, -10.929221 
1494299207.102425, 1494299207.102425, -1.128540, +0.042603, -0.088989, -13.940788, +1.135797, -10.608787 
1494299207.106344, 1494299207.106344, -1.128540, +0.042603, -0.088989, -13.940788, +1.135797, -10.608787 
1494299207.110103, 1494299207.110103, -1.128540, +0.042603, -0.088989, -13.940788, +1.135797, -10.608787 
1494299207.113852, 1494299207.113852, -1.128540, +0.042603, -0.088989, -13.132072, +0.845880, -10.257834 
1494299207.117833, 1494299207.117833, -1.128540, +0.042603, -0.088989, -13.132072, +0.845880, -10.257834 
1494299207.121780, 1494299207.121780, -1.123779, +0.037720, -0.087524, -13.132072, +0.845880, -10.257834 
1494299207.125755, 1494299207.125755, -1.123779, +0.037720, -0.087524, -13.376213, +0.906916, -9.433860 
1494299207.129699, 1494299207.129699, -1.123779, +0.037720, -0.087524, -13.376213, +0.906916, -9.433860 
1494299207.133643, 1494299207.133643, -1.123779, +0.037720, -0.087524, -13.376213, +0.906916, -9.433860 
1494299207.137628, 1494299207.137628, -1.123779, +0.037720, -0.087524, -13.025261, +1.257868, -8.747214 
1494299207.141570, 1494299207.141570, -1.121460, +0.042603, -0.081543, -13.025261, +1.257868, -8.747214 
1494299207.145464, 1494299207.145464, -1.121460, +0.042603, -0.081543, -13.025261, +1.242609, -8.182639 
1494299207.149312, 1494299207.149312, -1.121460, +0.042603, -0.081543, -13.132072, +1.242609, -8.182639 
1494299207.153064, 1494299207.153064, -1.121460, +0.042603, -0.081543, -13.132072, +1.242609, -8.182639 
1494299207.156950, 1494299207.156950, -1.121460, +0.042603, -0.081543, -13.101555, +1.303644, -8.152122 
1494299207.160892, 1494299207.160892, -1.122314, +0.049438, -0.080811, -13.101555, +1.303644, -8.152122 
1494299207.164847, 1494299207.164847, -1.122314, +0.049438, -0.080811, -13.101555, +1.303644, -8.152122 
1494299207.168787, 1494299207.168787, -1.122314, +0.049438, -0.080811, -13.666130, +1.486750, -8.335227 
1494299207.172724, 1494299207.172724, -1.122314, +0.049438, -0.080811, -13.666130, +1.486750, -8.335227 
1494299207.176679, 1494299207.176679, -1.122314, +0.049438, -0.080811, -13.666130, +1.486750, -8.335227 
1494299207.180627, 1494299207.180627, -1.122559, +0.050781, -0.085205, -14.001823, +1.502008, -8.136863 
1494299207.184615, 1494299207.184615, -1.122559, +0.050781, -0.085205, -14.001823, +1.502008, -8.136863 
1494299207.188560, 1494299207.188560, -1.122559, +0.050781, -0.085205, -14.001823, +1.502008, -8.136863 
1494299207.192502, 1494299207.192502, -1.122559, +0.050781, -0.085205, -13.849236, +0.861139, -8.136863 
1494299207.196361, 1494299207.196361, -1.122559, +0.050781, -0.085205, -13.849236, +0.861139, -8.136863 
1494299207.200110, 1494299207.200110, -1.124268, +0.048462, -0.089722, -13.849236, +1.486750, -8.121604 
1494299207.203860, 1494299207.203860, -1.124268, +0.048462, -0.089722, -13.681389, +1.486750, -8.121604 
1494299207.207845, 1494299207.207845, -1.124268, +0.048462, -0.089722, -13.681389, +1.486750, -8.121604 
1494299207.211787, 1494299207.211787, -1.124268, +0.048462, -0.089722, -13.635612, +1.578302, -7.663840 
1494299207.215736, 1494299207.215736, -1.124268, +0.048462, -0.089722, -13.635612, +1.578302, -7.663840 
1494299207.219677, 1494299207.219677, -1.124268, +0.044556, -0.087646, -13.635612, +1.578302, -7.663840 
1494299207.223620, 1494299207.223620, -1.121582, +0.044556, -0.087646, -13.711906, +1.303644, -7.618064 
1494299207.227571, 1494299207.227571, -1.121582, +0.044556, -0.087646, -13.711906, +1.303644, -7.618064 
1494299207.231564, 1494299207.231564, -1.121582, +0.044556, -0.087646, -13.711906, +1.303644, -7.618064 
1494299207.235456, 1494299207.235456, -1.121582, +0.044556, -0.087646, -13.925529, +1.334162, -7.343406 
1494299207.239260, 1494299207.239260, -1.121582, +0.049194, -0.085327, -13.925529, +1.334162, -7.343406 
1494299207.243034, 1494299207.243034, -1.119629, +0.049194, -0.085327, -13.925529, +1.334162, -7.755393 
1494299207.246787, 1494299207.246787, -1.119629, +0.049194, -0.085327, -13.727165, +1.318903, -7.755393 
1494299207.250557, 1494299207.250557, -1.119629, +0.049194, -0.085327, -13.727165, +1.318903, -7.755393 
1494299207.254332, 1494299207.254332, -1.119629, +0.049194, -0.085327, -13.727165, +1.532526, -7.465476 
1494299207.258269, 1494299207.258269, -1.119629, +0.049194, -0.085327, -13.620354, +1.532526, -7.465476 
1494299207.262215, 1494299207.262215, -1.123291, +0.047729, -0.085083, -13.620354, +1.532526, -7.465476 
1494299207.266210, 1494299207.266210, -1.123291, +0.047729, -0.085083, -13.772942, +1.685114, -7.312888 
1494299207.270151, 1494299207.270151, -1.123291, +0.047729, -0.085083, -13.772942, +1.685114, -7.312888 
1494299207.274090, 1494299207.274090, -1.123291, +0.047729, -0.085083, -13.772942, +1.685114, -7.312888 
1494299207.278048, 1494299207.278048, -1.123291, +0.047729, -0.085083, -13.666130, +1.303644, -7.084006 
1494299207.281985, 1494299207.281985, -1.121216, +0.044922, -0.080078, -13.666130, +1.303644, -7.084006 
1494299207.285855, 1494299207.285855, -1.121216, +0.044922, -0.080078, -13.666130, +1.303644, -7.084006 
1494299207.289602, 1494299207.289602, -1.121216, +0.044922, -0.080078, -13.879753, +1.410456, -7.450217 
1494299207.293347, 1494299207.293347, -1.121216, +0.044922, -0.080078, -13.879753, +1.410456, -7.450217 
1494299207.297268, 1494299207.297268, -1.121216, +0.044922, -0.080078, -13.879753, +1.410456, -7.450217 
1494299207.301318, 1494299207.301318, -1.119995, +0.051392, -0.087769, -13.498283, +1.486750, -7.465476 
1494299207.305278, 1494299207.305278, -1.119995, +0.051392, -0.087769, -13.498283, +1.486750, -7.465476 
1494299207.309214, 1494299207.309214, -1.119995, +0.051392, -0.087769, -13.910271, +1.303644, -7.557029 
1494299207.313159, 1494299207.313159, -1.119995, +0.051392, -0.087769, -13.910271, +1.303644, -7.557029 
1494299207.317115, 1494299207.317115, -1.119995, +0.051392, -0.087769, -13.910271, +1.303644, -7.557029 
1494299207.321060, 1494299207.321060, -1.122070, +0.051514, -0.085083, -14.047600, +1.105280, -7.602805 
1494299207.325021, 1494299207.325021, -1.122070, +0.051514, -0.085083, -14.047600, +1.105280, -7.602805 
1494299207.328961, 1494299207.328961, -1.122070, +0.051514, -0.085083, -14.047600, +1.105280, -7.602805 
1494299207.332905, 1494299207.332905, -1.122070, +0.051514, -0.085083, -14.062859, +1.242609, -7.999534 
1494299207.336741, 1494299207.336741, -1.122070, +0.051514, -0.085083, -14.062859, +1.242609, -7.999534 
1494299207.340495, 1494299207.340495, -1.123413, +0.049316, -0.085815, -14.062859, +1.242609, -7.999534 
1494299207.344241, 1494299207.344241, -1.123413, +0.049316, -0.085815, -14.245964, +1.120539, -7.785911 
1494299207.348212, 1494299207.348212, -1.123413, +0.049316, -0.085815, -14.245964, +1.120539, -7.785911 
1494299207.352134, 1494299207.352134, -1.123413, +0.049316, -0.085815, -14.245964, +1.120539, -7.663840 
1494299207.356070, 1494299207.356070, -1.123413, +0.049316, -0.085815, -13.833977, +1.242609, -7.663840 
1494299207.359993, 1494299207.359993, -1.120605, +0.049561, -0.085205, -13.833977, +1.242609, -7.663840 
1494299207.363917, 1494299207.363917, -1.120605, +0.049561, -0.085205, -14.108635, +1.440973, -7.618064 
1494299207.367855, 1494299207.367855, -1.120605, +0.049561, -0.085205, -14.108635, +1.440973, -7.618064 
1494299207.371774, 1494299207.371774, -1.120605, +0.049561, -0.085205, -14.108635, +1.440973, -7.618064 
1494299207.375703, 1494299207.375703, -1.120605, +0.049561, -0.085205, -13.864494, +1.090021, -7.297629 
1494299207.379621, 1494299207.379621, -1.121948, +0.045776, -0.089111, -13.864494, +1.090021, -7.297629 
1494299207.383543, 1494299207.383543, -1.121948, +0.045776, -0.089111, -13.864494, +1.090021, -7.297629 
1494299207.387340, 1494299207.387340, -1.121948, +0.045776, -0.089111, -14.139153, +0.967951, -7.343406 
1494299207.391094, 1494299207.391094, -1.121948, +0.045776, -0.089111, -14.139153, +0.967951, -7.343406 
1494299207.394914, 1494299207.394914, -1.121948, +0.045776, -0.089111, -14.139153, +0.967951, -7.343406 
1494299207.398858, 1494299207.398858, -1.121338, +0.046265, -0.088501, -14.001823, +1.074762, -7.129783 
1494299207.402804, 1494299207.402804, -1.121338, +0.046265, -0.088501, -14.001823, +1.074762, -7.129783 
1494299207.406753, 1494299207.406753, -1.121338, +0.046265, -0.088501, -14.001823, +1.273126, -6.763572 
1494299207.410695, 1494299207.410695, -1.121338, +0.046265, -0.088501, -13.696648, +1.273126, -6.763572 
1494299207.414649, 1494299207.414649, -1.121338, +0.046265, -0.088501, -13.696648, +1.273126, -6.763572 
1494299207.418599, 1494299207.418599, -1.123535, +0.048218, -0.082397, -13.772942, +1.379938, -6.809348 
1494299207.422540, 1494299207.422540, -1.123535, +0.048218, -0.082397, -13.772942, +1.379938, -6.809348 
1494299207.426503, 1494299207.426503, -1.123535, +0.048218, -0.082397, -13.772942, +1.379938, -6.809348 
1494299207.430451, 1494299207.430451, -1.123535, +0.048218, -0.082397, -13.895012, +1.334162, -6.794089 
1494299207.434403, 1494299207.434403, -1.123535, +0.048218, -0.082397, -13.895012, +1.334162, -6.794089 
1494299207.438153, 1494299207.438153, -1.123047, +0.054565, -0.085327, -13.895012, +1.334162, -6.794089 
1494299207.441898, 1494299207.441898, -1.123047, +0.054565, -0.085327, -14.139153, +1.715631, -6.961936 
1494299207.445720, 1494299207.445720, -1.123047, +0.054565, -0.085327, -14.139153, +1.715631, -6.961936 
1494299207.449664, 1494299207.449664, -1.123047, +0.054565, -0.085327, -14.139153, +1.715631, -6.961936 
1494299207.453714, 1494299207.453714, -1.123047, +0.054565, -0.085327, -14.017082, +1.746149, -7.068748 
1494299207.457678, 1494299207.457678, -1.123047, +0.053589, -0.088867, -14.017082, +1.746149, -7.068748 
1494299207.461625, 1494299207.461625, -1.122070, +0.053589, -0.088867, -14.261223, +1.593561, -7.175559 
1494299207.465610, 1494299207.465610, -1.122070, +0.053589, -0.088867, -14.261223, +1.593561, -7.175559 
1494299207.469554, 1494299207.469554, -1.122070, +0.053589, -0.088867, -14.261223, +1.593561, -7.175559 
1494299207.473497, 1494299207.473497, -1.122070, +0.053589, -0.088867, -14.062859, +1.517267, -7.480735 
1494299207.477452, 1494299207.477452, -1.122070, +0.055298, -0.088501, -14.062859, +1.517267, -7.480735 
1494299207.481385, 1494299207.481385, -1.121582, +0.055298, -0.088501, -14.062859, +1.517267, -7.480735 
1494299207.485289, 1494299207.485289, -1.121582, +0.055298, -0.088501, -14.291740, +1.364679, -8.014792 
1494299207.489039, 1494299207.489039, -1.121582, +0.055298, -0.088501, -14.291740, +1.364679, -8.014792 
1494299207.492796, 1494299207.492796, -1.121582, +0.055298, -0.088501, -14.291740, +1.364679, -8.014792 
1494299207.496668, 1494299207.496668, -1.121582, +0.055298, -0.088501, -14.001823, +1.532526, -8.075828 
1494299207.500611, 1494299207.500611, -1.122437, +0.052612, -0.083130, -14.001823, +1.532526, -8.075828 
1494299207.504620, 1494299207.504620, -1.122437, +0.052612, -0.083130, -14.001823, +1.532526, -7.846946 
1494299207.508559, 1494299207.508559, -1.122437, +0.052612, -0.083130, -14.032341, +1.578302, -7.846946 
1494299207.512497, 1494299207.512497, -1.122437, +0.052612, -0.083130, -14.032341, +1.578302, -7.846946 
1494299207.516452, 1494299207.516452, -1.122437, +0.052612, -0.083130, -13.956047, +1.395197, -8.014792 
1494299207.520392, 1494299207.520392, -1.120972, +0.052002, -0.088257, -13.956047, +1.395197, -8.014792 
1494299207.524341, 1494299207.524341, -1.120972, +0.052002, -0.088257, -13.956047, +1.395197, -8.014792 
1494299207.528284, 1494299207.528284, -1.120972, +0.052002, -0.088257, -14.261223, +0.876398, -7.938498 
1494299207.532223, 1494299207.532223, -1.120972, +0.052002, -0.088257, -14.261223, +0.876398, -7.938498 
1494299207.536125, 1494299207.536125, -1.120972, +0.052002, -0.088257, -14.261223, +0.876398, -7.938498 
1494299207.539882, 1494299207.539882, -1.121704, +0.051880, -0.082397, -13.864494, +0.845880, -8.258933 
1494299207.543628, 1494299207.543628, -1.121704, +0.051880, -0.082397, -13.864494, +0.845880, -8.258933 
1494299207.547538, 1494299207.547538, -1.121704, +0.051880, -0.082397, -13.864494, +0.845880, -8.258933 
1494299207.551484, 1494299207.551484, -1.121704, +0.051880, -0.082397, -13.818718, +1.212091, -7.984275 
1494299207.555435, 1494299207.555435, -1.121704, +0.051880, -0.082397, -13.818718, +1.212091, -7.984275 
1494299207.559371, 1494299207.559371, -1.124146, +0.049561, -0.081665, -13.818718, +1.181574, -8.091086 
1494299207.563311, 1494299207.563311, -1.124146, +0.049561, -0.081665, -13.574577, +1.181574, -8.091086 
1494299207.567271, 1494299207.567271, -1.124146, +0.049561, -0.081665, -13.574577, +1.181574, -8.091086 
1494299207.571214, 1494299207.571214, -1.124146, +0.049561, -0.081665, -13.986565, +0.998468, -8.045310 
1494299207.575201, 1494299207.575201, -1.124146, +0.049561, -0.081665, -13.986565, +0.998468, -8.045310 
1494299207.579142, 1494299207.579142, -1.124023, +0.048950, -0.081055, -13.986565, +0.998468, -8.045310 
1494299207.583088, 1494299207.583088, -1.124023, +0.048950, -0.081055, -14.383293, +0.906916, -8.396262 
1494299207.586912, 1494299207.586912, -1.124023, +0.048950, -0.081055, -14.383293, +0.906916, -8.396262 
1494299207.590665, 1494299207.590665, -1.124023, +0.048950, -0.081055, -14.383293, +0.906916, -8.396262 
1494299207.594421, 1494299207.594421, -1.124023, +0.048950, -0.081055, -14.047600, +1.105280, -8.426780 
1494299207.598368, 1494299207.598368, -1.123413, +0.049438, -0.084961, -14.047600, +1.105280, -8.426780 
1494299207.602311, 1494299207.602311, -1.123413, +0.049438, -0.084961, -14.047600, +1.105280, -8.609885 
1494299207.606374, 1494299207.606374, -1.123413, +0.049438, -0.084961, -14.535881, +1.303644, -8.609885 
1494299207.610324, 1494299207.610324, -1.123413, +0.049438, -0.084961, -14.535881, +1.303644, -8.609885 
1494299207.614270, 1494299207.614270, -1.123413, +0.049438, -0.084961, -13.940788, +1.257868, -8.182639 
1494299207.618283, 1494299207.618283, -1.121948, +0.049561, -0.085693, -13.940788, +1.257868, -8.182639 
1494299207.622224, 1494299207.622224, -1.121948, +0.049561, -0.085693, -13.940788, +1.257868, -8.182639 
1494299207.626144, 1494299207.626144, -1.121948, +0.049561, -0.085693, -13.986565, +1.105280, -8.365745 
1494299207.629892, 1494299207.629892, -1.121948, +0.049561, -0.085693, -13.986565, +1.105280, -8.365745 
1494299207.633638, 1494299207.633638, -1.121948, +0.049561, -0.085693, -13.986565, +1.105280, -8.365745 
1494299207.637388, 1494299207.637388, -1.123779, +0.054199, -0.085449, -14.017082, +1.456232, -8.411521 
1494299207.641131, 1494299207.641131, -1.123779, +0.054199, -0.085449, -14.017082, +1.456232, -8.411521 
1494299207.644971, 1494299207.644971, -1.123779, +0.054199, -0.085449, -14.017082, +1.456232, -8.411521 
1494299207.648913, 1494299207.648913, -1.123779, +0.054199, -0.085449, -14.078117, +1.318903, -8.594626 
1494299207.652856, 1494299207.652856, -1.123779, +0.054199, -0.085449, -14.078117, +1.318903, -8.594626 
1494299207.656813, 1494299207.656813, -1.128174, +0.052612, -0.093384, -14.078117, +1.318903, -8.884543 
1494299207.660747, 1494299207.660747, -1.128174, +0.052612, -0.093384, -13.788200, +1.471491, -8.884543 
1494299207.664703, 1494299207.664703, -1.128174, +0.052612, -0.093384, -13.788200, +1.471491, -8.884543 
1494299207.668650, 1494299207.668650, -1.128174, +0.052612, -0.093384, -14.108635, +1.318903, -8.655662 
1494299207.672592, 1494299207.672592, -1.128174, +0.052612, -0.093384, -14.108635, +1.318903, -8.655662 
1494299207.676536, 1494299207.676536, -1.125732, +0.042969, -0.083984, -14.108635, +1.318903, -8.655662 
1494299207.680470, 1494299207.680470, -1.125732, +0.042969, -0.083984, -14.169670, +1.578302, -8.670920 
1494299207.684425, 1494299207.684425, -1.125732, +0.042969, -0.083984, -14.169670, +1.578302, -8.670920 
1494299207.688175, 1494299207.688175, -1.125732, +0.042969, -0.083984, -14.169670, +1.578302, -8.670920 
1494299207.691916, 1494299207.691916, -1.125732, +0.042969, -0.083984, -13.879753, +1.700373, -8.319968 
1494299207.695742, 1494299207.695742, -1.125732, +0.043823, -0.082153, -13.879753, +1.700373, -8.319968 
1494299207.699687, 1494299207.699687, -1.123291, +0.043823, -0.082153, -13.879753, +1.700373, -8.319968 
1494299207.703622, 1494299207.703622, -1.123291, +0.043823, -0.082153, -14.017082, +1.456232, -7.816428 
1494299207.707563, 1494299207.707563, -1.123291, +0.043823, -0.082153, -14.017082, +1.456232, -7.816428 
1494299207.711504, 1494299207.711504, -1.123291, +0.043823, -0.082153, -14.017082, +1.456232, -7.816428 
1494299207.715456, 1494299207.715456, -1.123291, +0.043823, -0.084106, -14.215446, +1.547785, -7.816428 
1494299207.719394, 1494299207.719394, -1.124268, +0.049438, -0.084106, -14.215446, +1.547785, -7.816428 
1494299207.723334, 1494299207.723334, -1.124268, +0.049438, -0.084106, -14.352776, +1.456232, -7.831687 
1494299207.727291, 1494299207.727291, -1.124268, +0.049438, -0.084106, -14.352776, +1.456232, -7.831687 
1494299207.731234, 1494299207.731234, -1.124268, +0.049438, -0.084106, -14.352776, +1.456232, -7.831687 
1494299207.735181, 1494299207.735181, -1.124268, +0.049438, -0.087036, -14.352776, +1.471491, -7.846946 
1494299207.738925, 1494299207.738925, -1.124390, +0.047729, -0.087036, -14.352776, +1.471491, -7.846946 
1494299207.742673, 1494299207.742673, -1.124390, +0.047729, -0.087036, -14.352776, +1.471491, -7.846946 
1494299207.746538, 1494299207.746538, -1.124390, +0.047729, -0.087036, -14.337517, +1.563043, -7.709617 
1494299207.750484, 1494299207.750484, -1.124390, +0.047729, -0.087036, -14.337517, +1.563043, -7.709617 
1494299207.754436, 1494299207.754436, -1.124390, +0.047729, -0.087036, -14.337517, +1.563043, -7.709617 
1494299207.758482, 1494299207.758482, -1.124756, +0.048096, -0.083740, -13.742424, +0.983209, -7.740134 
1494299207.762434, 1494299207.762434, -1.124756, +0.048096, -0.083740, -13.742424, +0.983209, -7.740134 
1494299207.766442, 1494299207.766442, -1.124756, +0.048096, -0.083740, -13.818718, +1.257868, -7.602805 
1494299207.770388, 1494299207.770388, -1.124756, +0.048096, -0.083740, -13.818718, +1.257868, -7.602805 
1494299207.774343, 1494299207.774343, -1.124756, +0.048096, -0.083740, -13.818718, +1.257868, -7.602805 
1494299207.778286, 1494299207.778286, -1.126831, +0.048706, -0.085449, -14.032341, +1.517267, -7.831687 
1494299207.782227, 1494299207.782227, -1.126831, +0.048706, -0.085449, -14.032341, +1.517267, -7.831687 
1494299207.786136, 1494299207.786136, -1.126831, +0.048706, -0.085449, -14.032341, +1.517267, -7.831687 
1494299207.789880, 1494299207.789880, -1.126831, +0.048706, -0.085449, -13.833977, +1.410456, -7.877463 
1494299207.793623, 1494299207.793623, -1.126831, +0.048706, -0.085449, -13.833977, +1.410456, -7.877463 
1494299207.797537, 1494299207.797537, -1.123535, +0.049194, -0.081787, -13.833977, +1.410456, -7.877463 
1494299207.801479, 1494299207.801479, -1.123535, +0.049194, -0.081787, -14.352776, +1.074762, -8.167380 
1494299207.805437, 1494299207.805437, -1.123535, +0.049194, -0.081787, -14.352776, +1.074762, -8.167380 
1494299207.809382, 1494299207.809382, -1.123535, +0.049194, -0.081787, -14.352776, +1.074762, -8.014792 
1494299207.813323, 1494299207.813323, -1.123535, +0.049194, -0.081787, -14.398552, +1.395197, -8.014792 
1494299207.817273, 1494299207.817273, -1.122681, +0.045654, -0.082764, -14.398552, +1.395197, -8.014792 
1494299207.821216, 1494299207.821216, -1.122681, +0.045654, -0.082764, -14.291740, +1.273126, -7.892722 
1494299207.825208, 1494299207.825208, -1.122681, +0.045654, -0.082764, -14.291740, +1.273126, -7.892722 
1494299207.829147, 1494299207.829147, -1.122681, +0.045654, -0.082764, -14.291740, +1.273126, -7.892722 
1494299207.833090, 1494299207.833090, -1.122681, +0.045654, -0.082764, -13.956047, +1.105280, -7.679099 
1494299207.836908, 1494299207.836908, -1.119751, +0.043213, -0.085815, -13.956047, +1.105280, -7.679099 
1494299207.840654, 1494299207.840654, -1.119751, +0.043213, -0.085815, -13.956047, +1.105280, -7.679099 
1494299207.844408, 1494299207.844408, -1.119751, +0.043213, -0.085815, -13.452507, +1.624079, -7.755393 
1494299207.848345, 1494299207.848345, -1.119751, +0.043213, -0.085815, -13.452507, +1.624079, -7.755393 
1494299207.852291, 1494299207.852291, -1.119751, +0.043213, -0.085815, -13.452507, +1.624079, -7.755393 
1494299207.856240, 1494299207.856240, -1.122437, +0.048950, -0.084106, -13.986565, +1.624079, -7.679099 
1494299207.860275, 1494299207.860275, -1.122437, +0.048950, -0.084106, -13.986565, +1.624079, -7.679099 
1494299207.864191, 1494299207.864191, -1.122437, +0.048950, -0.084106, -13.986565, +1.700373, -7.953757 
1494299207.868115, 1494299207.868115, -1.122437, +0.048950, -0.084106, -14.551140, +1.700373, -7.953757 
1494299207.872052, 1494299207.872052, -1.122437, +0.048950, -0.084106, -14.551140, +1.700373, -7.953757 
1494299207.875935, 1494299207.875935, -1.124390, +0.048950, -0.081299, -13.803459, +1.715631, -7.740134 
1494299207.879692, 1494299207.879692, -1.124390, +0.048950, -0.081299, -13.803459, +1.715631, -7.740134 
1494299207.883441, 1494299207.883441, -1.124390, +0.048950, -0.081299, -13.803459, +1.715631, -7.740134 
1494299207.887190, 1494299207.887190, -1.124390, +0.048950, -0.081299, -13.711906, +1.639337, -7.816428 
1494299207.890930, 1494299207.890930, -1.124390, +0.048950, -0.081299, -13.711906, +1.639337, -7.816428 
1494299207.894682, 1494299207.894682, -1.126221, +0.047607, -0.089111, -13.711906, +1.639337, -7.816428 
1494299207.898627, 1494299207.898627, -1.126221, +0.047607, -0.089111, -14.093376, +1.410456, -8.091086 
1494299207.902568, 1494299207.902568, -1.126221, +0.047607, -0.089111, -14.093376, +1.410456, -8.091086 
1494299207.906518, 1494299207.906518, -1.126221, +0.047607, -0.089111, -14.093376, +1.410456, -8.091086 
1494299207.910561, 1494299207.910561, -1.126221, +0.047607, -0.089111, -14.001823, +1.502008, -7.923240 
1494299207.914557, 1494299207.914557, -1.121826, +0.047241, -0.084961, -14.001823, +1.502008, -7.923240 
1494299207.918498, 1494299207.918498, -1.121826, +0.047241, -0.084961, -14.001823, +1.502008, -7.892722 
1494299207.922446, 1494299207.922446, -1.121826, +0.047241, -0.084961, -14.093376, +1.486750, -7.892722 
1494299207.926330, 1494299207.926330, -1.121826, +0.047241, -0.084961, -14.093376, +1.486750, -7.892722 
1494299207.930080, 1494299207.930080, -1.121826, +0.047241, -0.084961, -13.925529, +1.456232, -7.907981 
1494299207.933831, 1494299207.933831, -1.121826, +0.047241, -0.082520, -13.925529, +1.456232, -7.907981 
1494299207.937752, 1494299207.937752, -1.123047, +0.051514, -0.082520, -13.925529, +1.456232, -7.907981 
1494299207.941695, 1494299207.941695, -1.123047, +0.051514, -0.082520, -14.474846, +1.578302, -8.350486 
1494299207.945645, 1494299207.945645, -1.123047, +0.051514, -0.082520, -14.474846, +1.578302, -8.350486 
1494299207.949581, 1494299207.949581, -1.123047, +0.051514, -0.082520, -14.474846, +1.578302, -8.350486 
1494299207.953528, 1494299207.953528, -1.123047, +0.051514, -0.081177, -14.276482, +1.532526, -8.213157 
1494299207.957485, 1494299207.957485, -1.124512, +0.045044, -0.081177, -14.276482, +1.532526, -8.213157 
1494299207.961424, 1494299207.961424, -1.124512, +0.045044, -0.081177, -14.276482, +1.532526, -8.213157 
1494299207.965405, 1494299207.965405, -1.124512, +0.045044, -0.081177, -14.017082, +1.563043, -7.999534 
1494299207.969345, 1494299207.969345, -1.124512, +0.045044, -0.081177, -14.017082, +1.563043, -7.999534 
1494299207.973292, 1494299207.973292, -1.124512, +0.045044, -0.083740, -14.017082, +1.440973, -8.075828 
1494299207.977101, 1494299207.977101, -1.122437, +0.047363, -0.083740, -14.215446, +1.440973, -8.075828 
1494299207.980851, 1494299207.980851, -1.122437, +0.047363, -0.083740, -14.215446, +1.440973, -8.075828 
1494299207.984679, 1494299207.984679, -1.122437, +0.047363, -0.083740, -14.657951, +1.715631, -8.167380 
1494299207.988617, 1494299207.988617, -1.122437, +0.047363, -0.083740, -14.657951, +1.715631, -8.167380 
1494299207.992559, 1494299207.992559, -1.122437, +0.047363, -0.083740, -14.657951, +1.715631, -8.167380 
1494299207.996513, 1494299207.996513, -1.118530, +0.047119, -0.081787, -13.330437, +2.142878, -8.060569 
1494299208.000450, 1494299208.000450, -1.118530, +0.047119, -0.081787, -13.330437, +2.142878, -8.060569 
1494299208.004404, 1494299208.004404, -1.118530, +0.047119, -0.081787, -13.330437, +2.142878, -8.060569 
1494299208.008155, 1494299208.008155, -1.118530, +0.047119, -0.081787, -13.818718, +2.448053, -7.984275 
1494299208.011903, 1494299208.011903, -1.118530, +0.047119, -0.081787, -13.818718, +2.448053, -7.984275 
1494299208.015727, 1494299208.015727, -1.121460, +0.050171, -0.081787, -13.818718, +2.448053, -7.984275 
1494299208.019675, 1494299208.019675, -1.121460, +0.050171, -0.081787, -14.551140, +2.112360, -7.465476 
1494299208.023618, 1494299208.023618, -1.121460, +0.050171, -0.081787, -14.551140, +2.112360, -7.465476 
1494299208.027408, 1494299208.027408, -1.121460, +0.050171, -0.081787, -14.551140, +2.112360, -7.145041 
1494299208.031156, 1494299208.031156, -1.121460, +0.050171, -0.081787, -16.656853, +2.478571, -7.145041 
1494299208.034941, 1494299208.034941, -1.125977, +0.047974, -0.082886, -16.656853, +2.478571, -7.145041 
1494299208.038884, 1494299208.038884, -1.125977, +0.047974, -0.082886, -18.365837, +2.646418, -6.794089 
1494299208.042823, 1494299208.042823, -1.125977, +0.047974, -0.082886, -18.365837, +2.646418, -6.794089 
1494299208.046814, 1494299208.046814, -1.125977, +0.047974, -0.082886, -18.365837, +2.646418, -6.794089 
1494299208.050754, 1494299208.050754, -1.125977, +0.047974, -0.082886, -19.128777, +3.333063, -6.778831 
1494299208.054697, 1494299208.054697, -1.124756, +0.055420, -0.092896, -19.128777, +3.333063, -6.778831 
1494299208.058639, 1494299208.058639, -1.124756, +0.055420, -0.092896, -19.128777, +3.333063, -6.778831 
1494299208.062684, 1494299208.062684, -1.124756, +0.055420, -0.092896, -20.776726, +3.180475, -6.565207 
1494299208.066642, 1494299208.066642, -1.124756, +0.055420, -0.092896, -20.776726, +3.180475, -6.565207 
1494299208.070589, 1494299208.070589, -1.124756, +0.055420, -0.092896, -20.776726, +3.180475, -5.527610 
1494299208.074574, 1494299208.074574, -1.122681, +0.063843, -0.084961, -24.652458, +2.295465, -5.527610 
1494299208.078319, 1494299208.078319, -1.122681, +0.063843, -0.084961, -24.652458, +2.295465, -5.527610 
1494299208.082072, 1494299208.082072, -1.122681, +0.063843, -0.084961, -24.652458, +2.310724, -4.428977 
1494299208.085907, 1494299208.085907, -1.122681, +0.063843, -0.084961, -28.161980, +2.310724, -4.428977 
1494299208.089842, 1494299208.089842, -1.122681, +0.063843, -0.084961, -28.161980, +2.310724, -4.428977 
1494299208.093785, 1494299208.093785, -1.125488, +0.066162, -0.083740, -31.900383, +1.883478, -3.391379 
1494299208.097734, 1494299208.097734, -1.125488, +0.066162, -0.083740, -31.900383, +1.883478, -3.391379 
1494299208.101672, 1494299208.101672, -1.125488, +0.066162, -0.083740, -31.900383, +1.883478, -3.391379 
1494299208.105622, 1494299208.105622, -1.125488, +0.066162, -0.083740, -31.030632, +2.081842, -4.276389 
1494299208.109567, 1494299208.109567, -1.125488, +0.066162, -0.083740, -31.030632, +2.081842, -4.276389 
1494299208.113509, 1494299208.113509, -1.124878, +0.071899, -0.086914, -31.030632, +2.081842, -4.276389 
1494299208.117468, 1494299208.117468, -1.124878, +0.071899, -0.086914, -29.855705, +1.944513, -5.680198 
1494299208.121415, 1494299208.121415, -1.124878, +0.071899, -0.086914, -29.855705, +1.944513, -5.680198 
1494299208.125371, 1494299208.125371, -1.124878, +0.071899, -0.086914, -29.855705, +1.944513, -5.939597 
1494299208.129118, 1494299208.129118, -1.124878, +0.071899, -0.086914, -30.649162, +1.242609, -5.939597 
1494299208.132865, 1494299208.132865, -1.115723, +0.021729, -0.080444, -30.649162, +1.242609, -5.939597 
1494299208.136622, 1494299208.136622, -1.115723, +0.021729, -0.080444, -30.649162, +0.494928, -6.458396 
1494299208.140359, 1494299208.140359, -1.115723, +0.021729, -0.080444, -28.116203, +0.494928, -6.458396 
1494299208.144106, 1494299208.144106, -1.115723, +0.021729, -0.080444, -28.116203, +0.494928, -6.458396 
1494299208.148075, 1494299208.148075, -1.115723, +0.021729, -0.080444, -24.972893, +0.571222, -7.480735 
1494299208.152022, 1494299208.152022, -1.115723, +0.052979, -0.086914, -24.972893, +0.571222, -7.480735 
1494299208.156012, 1494299208.156012, -1.125854, +0.057861, -0.086914, -24.972893, +0.571222, -7.480735 
1494299208.159957, 1494299208.159957, -1.125854, +0.057861, -0.086914, -24.652458, +0.449152, -7.602805 
1494299208.163897, 1494299208.163897, -1.125854, +0.057861, -0.086914, -24.652458, +0.449152, -7.602805 
1494299208.167848, 1494299208.167848, -1.125854, +0.057861, -0.086914, -24.652458, +0.449152, -7.602805 
1494299208.171792, 1494299208.171792, -1.125854, +0.057861, -0.094849, -24.240471, -0.130682, -8.243674 
1494299208.175668, 1494299208.175668, -1.133667, +0.061157, -0.094849, -24.240471, -0.130682, -8.243674 
1494299208.179417, 1494299208.179417, -1.133667, +0.061157, -0.094849, -24.240471, -0.130682, -12.149924 
1494299208.183172, 1494299208.183172, -1.133667, +0.061157, -0.094849, -24.621941, -1.061468, -8.716697 
1494299208.187061, 1494299208.187061, -1.133667, +0.061157, -0.094849, -24.621941, -1.061468, -8.716697 
1494299208.190996, 1494299208.190996, -1.133667, +0.061157, -0.094849, -24.621941, -1.626043, -8.777732 
1494299208.194978, 1494299208.194978, -1.130371, +0.025635, -0.099731, -24.469353, -1.626043, -8.777732 
1494299208.198921, 1494299208.198921, -1.130371, +0.025635, -0.099731, -24.469353, -1.626043, -8.777732 
1494299208.202862, 1494299208.202862, -1.130371, +0.025635, -0.099731, -22.150017, -2.205877, -8.594626 
1494299208.206816, 1494299208.206816, -1.130371, +0.025635, -0.099731, -22.150017, -2.205877, -8.594626 
1494299208.210762, 1494299208.210762, -1.130371, +0.025635, -0.099731, -22.150017, -2.205877, -8.594626 
1494299208.214815, 1494299208.214815, -1.126343, +0.033081, -0.094971, -18.228508, -2.312689, -8.365745 
1494299208.218768, 1494299208.218768, -1.126343, +0.033081, -0.094971, -18.228508, -2.312689, -8.365745 
1494299208.222713, 1494299208.222713, -1.126343, +0.033081, -0.094971, -18.228508, -2.312689, -8.365745 
1494299208.226558, 1494299208.226558, -1.126343, +0.033081, -0.094971, -16.015984, -3.151922, -8.381003 
1494299208.230302, 1494299208.230302, -1.126343, +0.033081, -0.094971, -16.015984, -3.151922, -8.381003 
1494299208.234051, 1494299208.234051, -1.134521, +0.061157, -0.097412, -16.015984, -3.151922, -8.625144 
1494299208.238035, 1494299208.238035, -1.134521, +0.061157, -0.097412, -15.359856, -4.204779, -8.625144 
1494299208.241981, 1494299208.241981, -1.134521, +0.061157, -0.097412, -15.359856, -4.204779, -8.625144 
1494299208.245933, 1494299208.245933, -1.134521, +0.061157, -0.097412, -15.314079, -4.632025, -9.204978 
1494299208.249881, 1494299208.249881, -1.134521, +0.061157, -0.097412, -15.314079, -4.632025, -9.204978 
1494299208.253822, 1494299208.253822, -1.128052, +0.046265, -0.086182, -15.314079, -4.632025, -9.204978 
1494299208.257781, 1494299208.257781, -1.128052, +0.046265, -0.086182, -14.612175, -4.784613, -9.327048 
1494299208.261726, 1494299208.261726, -1.128052, +0.046265, -0.086182, -14.612175, -4.784613, -9.327048 
1494299208.265627, 1494299208.265627, -1.128052, +0.046265, -0.086182, -14.612175, -4.784613, -9.327048 
1494299208.269370, 1494299208.269370, -1.128052, +0.046265, -0.086182, -13.620354, -5.288153, -9.372825 
1494299208.273109, 1494299208.273109, -1.129395, +0.053467, -0.080200, -13.620354, -5.288153, -9.372825 
1494299208.276905, 1494299208.276905, -1.129395, +0.053467, -0.080200, -13.620354, -5.288153, -9.372825 
1494299208.280648, 1494299208.280648, -1.129395, +0.053467, -0.080200, -12.613274, -5.959539, -9.876365 
1494299208.284403, 1494299208.284403, -1.129395, +0.053467, -0.080200, -12.613274, -5.959539, -9.876365 
1494299208.288340, 1494299208.288340, -1.129395, +0.053467, -0.080200, -12.613274, -5.959539, -10.074729 
1494299208.292287, 1494299208.292287, -1.135864, +0.045410, -0.093994, -12.277580, -6.539373, -10.074729 
1494299208.296245, 1494299208.296245, -1.135864, +0.045410, -0.093994, -12.277580, -6.539373, -10.074729 
1494299208.300186, 1494299208.300186, -1.135864, +0.045410, -0.093994, -12.094475, -7.348089, -10.395164 
1494299208.304130, 1494299208.304130, -1.135864, +0.045410, -0.093994, -12.094475, -7.348089, -10.395164 
1494299208.308085, 1494299208.308085, -1.135864, +0.045410, -0.093994, -12.094475, -7.348089, -10.395164 
1494299208.312031, 1494299208.312031, -1.130127, +0.053467, -0.084961, -11.117912, -7.897406, -10.685081 
1494299208.315949, 1494299208.315949, -1.130127, +0.053467, -0.084961, -11.117912, -7.897406, -10.685081 
1494299208.319700, 1494299208.319700, -1.130127, +0.053467, -0.084961, -11.117912, -7.897406, -10.685081 
1494299208.323455, 1494299208.323455, -1.130127, +0.053467, -0.084961, -10.843254, -8.355169, -10.761374 
1494299208.327356, 1494299208.327356, -1.130127, +0.053467, -0.084961, -10.843254, -8.355169, -10.761374 
1494299208.331304, 1494299208.331304, -1.128174, +0.039551, -0.075439, -10.843254, -8.355169, -10.761374 
1494299208.335267, 1494299208.335267, -1.128174, +0.039551, -0.075439, -9.256340, -8.950262, -10.807151 
1494299208.339210, 1494299208.339210, -1.128174, +0.039551, -0.075439, -9.256340, -8.950262, -10.807151 
1494299208.343152, 1494299208.343152, -1.128174, +0.039551, -0.075439, -9.256340, -8.950262, -11.203879 
1494299208.347108, 1494299208.347108, -1.128174, +0.039551, -0.075439, -8.279778, -9.591131, -11.203879 
1494299208.351055, 1494299208.351055, -1.128174, +0.045532, -0.068604, -8.279778, -9.591131, -11.203879 
1494299208.355015, 1494299208.355015, -1.138794, +0.045532, -0.068604, -8.188225, -10.201483, -11.478538 
1494299208.358963, 1494299208.358963, -1.138794, +0.045532, -0.068604, -8.188225, -10.201483, -11.478538 
1494299208.362907, 1494299208.362907, -1.138794, +0.045532, -0.068604, -8.188225, -10.201483, -11.478538 
1494299208.366856, 1494299208.366856, -1.138794, +0.045532, -0.068604, -8.020378, -10.750799, -11.402244 
1494299208.370611, 1494299208.370611, -1.138794, +0.053955, -0.070923, -8.020378, -10.750799, -11.402244 
1494299208.374349, 1494299208.374349, -1.126221, +0.053955, -0.070923, -8.020378, -10.750799, -11.402244 
1494299208.378093, 1494299208.378093, -1.126221, +0.053955, -0.070923, -8.584953, -11.010199, -11.402244 
1494299208.381849, 1494299208.381849, -1.126221, +0.053955, -0.070923, -8.584953, -11.010199, -11.402244 
1494299208.386345, 1494299208.386345, -1.126221, +0.053955, -0.070923, -8.584953, -12.246161, -11.783713 
1494299208.390903, 1494299208.390903, -1.128052, +0.035400, -0.068115, -8.935905, -12.246161, -11.783713 
1494299208.394831, 1494299208.394831, -1.128052, +0.035400, -0.068115, -8.935905, -12.246161, -11.783713 
1494299208.398750, 1494299208.398750, -1.128052, +0.035400, -0.068115, -7.944084, -13.329535, -11.844748 
1494299208.402666, 1494299208.402666, -1.128052, +0.035400, -0.068115, -7.944084, -13.329535, -11.844748 
1494299208.406596, 1494299208.406596, -1.128052, +0.035400, -0.068115, -7.944084, -13.329535, -11.844748 
1494299208.410510, 1494299208.410510, -1.128052, +0.043945, -0.049805, -7.394768, -14.031439, -12.302512 
1494299208.414437, 1494299208.414437, -1.136475, +0.043945, -0.049805, -7.394768, -14.031439, -12.302512 
1494299208.418357, 1494299208.418357, -1.136475, +0.043945, -0.049805, -7.394768, -14.031439, -12.302512 
1494299208.422270, 1494299208.422270, -1.136475, +0.043945, -0.049805, -6.738640, -14.687567, -12.745017 
1494299208.426200, 1494299208.426200, -1.136475, +0.043945, -0.049805, -6.738640, -14.687567, -12.745017 
1494299208.430116, 1494299208.430116, -1.136475, +0.062378, -0.050415, -6.738640, -14.687567, -13.462180 
1494299208.434031, 1494299208.434031, -1.141724, +0.062378, -0.050415, -7.104851, -15.404730, -13.462180 
1494299208.437974, 1494299208.437974, -1.141724, +0.062378, -0.050415, -7.104851, -15.404730, -13.462180 
1494299208.441915, 1494299208.441915, -1.141724, +0.062378, -0.050415, -8.417107, -16.579657, -14.530295 
1494299208.445876, 1494299208.445876, -1.141724, +0.062378, -0.050415, -8.417107, -16.579657, -14.530295 
1494299208.449822, 1494299208.449822, -1.141724, +0.062378, -0.045044, -8.417107, -16.579657, -14.530295 
1494299208.453759, 1494299208.453759, -1.139771, +0.060669, -0.045044, -10.309196, -17.479925, -16.025658 
1494299208.457714, 1494299208.457714, -1.139771, +0.060669, -0.045044, -10.309196, -17.479925, -16.025658 
1494299208.461660, 1494299208.461660, -1.139771, +0.060669, -0.045044, -10.309196, -17.479925, -16.025658 
1494299208.465614, 1494299208.465614, -1.139771, +0.060669, -0.045044, -10.751701, -18.487005, -17.231102 
1494299208.469567, 1494299208.469567, -1.139771, +0.060669, -0.049072, -10.751701, -18.487005, -17.231102 
1494299208.473509, 1494299208.473509, -1.140503, +0.041382, -0.049072, -10.751701, -18.487005, -18.650169 
1494299208.477321, 1494299208.477321, -1.140503, +0.041382, -0.049072, -10.477043, -19.173651, -18.650169 
1494299208.481072, 1494299208.481072, -1.140503, +0.041382, -0.049072, -10.477043, -19.173651, -18.650169 
1494299208.484849, 1494299208.484849, -1.140503, +0.041382, -0.049072, -10.477043, -20.302801, -19.916649 
1494299208.488801, 1494299208.488801, -1.140503, +0.041382, -0.049072, -9.439445, -20.302801, -19.916649 
1494299208.492752, 1494299208.492752, -1.160522, +0.034058, -0.051880, -9.439445, -20.302801, -19.916649 
1494299208.496703, 1494299208.496703, -1.160522, +0.034058, -0.051880, -8.569695, -21.599798, -21.610374 
1494299208.500650, 1494299208.500650, -1.160522, +0.034058, -0.051880, -8.569695, -21.599798, -21.610374 
1494299208.504610, 1494299208.504610, -1.160522, +0.034058, -0.051880, -8.569695, -21.599798, -21.610374 
1494299208.508561, 1494299208.508561, -1.160522, +0.034058, -0.051880, -6.082512, -23.003607, -23.883934 
1494299208.512504, 1494299208.512504, -1.163208, +0.014282, -0.057129, -6.082512, -23.003607, -23.883934 
1494299208.516360, 1494299208.516360, -1.163208, +0.014282, -0.057129, -6.082512, -23.003607, -23.883934 
1494299208.520255, 1494299208.520255, -1.163208, +0.014282, -0.057129, -2.435661, -24.575262, -27.088280 
1494299208.524008, 1494299208.524008, -1.163208, +0.014282, -0.057129, -2.435661, -24.575262, -27.088280 
1494299208.527783, 1494299208.527783, -1.163208, +0.014282, -0.057129, -2.435661, -24.575262, -34.900780 
1494299208.531531, 1494299208.531531, -1.214478, +0.078491, -0.069092, +2.859138, -27.199774, -32.505150 
1494299208.535335, 1494299208.535335, -1.214478, +0.078491, -0.069092, +2.859138, -27.199774, -32.505150 
1494299208.539280, 1494299208.539280, -1.214478, +0.078491, -0.069092, +2.859138, -30.037909, -39.173241 
1494299208.543228, 1494299208.543228, -1.214478, +0.078491, -0.069092, +7.314705, -30.037909, -39.173241 
1494299208.547224, 1494299208.547224, -1.214478, +0.078491, -0.069092, +7.314705, -30.037909, -39.173241 
1494299208.551164, 1494299208.551164, -1.257324, +0.211670, -0.044800, +9.573006, -32.418282, -48.450584 
1494299208.555121, 1494299208.555121, -1.257324, +0.211670, -0.044800, +9.573006, -32.418282, -48.450584 
1494299208.559068, 1494299208.559068, -1.257324, +0.211670, -0.044800, +9.573006, -32.418282, -48.450584 
1494299208.563009, 1494299208.563009, -1.257324, +0.211670, -0.044800, +8.977913, -35.073311, -59.848900 
1494299208.566956, 1494299208.566956, -1.257324, +0.211670, -0.044800, +8.977913, -35.073311, -59.848900 
1494299208.570894, 1494299208.570894, -1.466309, +0.241821, +0.066528, +8.977913, -35.073311, -59.848900 
1494299208.574831, 1494299208.574831, -1.466309, +0.241821, +0.066528, +6.643318, -39.544136, -71.994896 
1494299208.578581, 1494299208.578581, -1.466309, +0.241821, +0.066528, +6.643318, -39.544136, -71.994896 
1494299208.582329, 1494299208.582329, -1.466309, +0.241821, +0.066528, +6.643318, -39.544136, -83.713646 
1494299208.586215, 1494299208.586215, -1.466309, +0.241821, +0.066528, +5.376839, -46.898872, -82.889671 
1494299208.590159, 1494299208.590159, -1.612183, +0.242065, -0.058716, +5.376839, -46.898872, -82.889671 
1494299208.594102, 1494299208.594102, -1.612183, +0.242065, -0.058716, +5.483650, -54.055244, -93.418236 
1494299208.598051, 1494299208.598051, -1.612183, +0.242065, -0.058716, +5.483650, -54.055244, -93.418236 
1494299208.602001, 1494299208.602001, -1.612183, +0.242065, -0.058716, +5.483650, -54.055244, -93.418236 
1494299208.605951, 1494299208.605951, -1.612183, +0.242065, -0.058716, +3.881477, -60.845406, -102.085228 
1494299208.609895, 1494299208.609895, -1.838623, +0.453003, -0.012573, +3.881477, -60.845406, -102.085228 
1494299208.613839, 1494299208.613839, -1.838623, +0.453003, -0.012573, +3.881477, -60.845406, -102.085228 
1494299208.617696, 1494299208.617696, -1.838623, +0.453003, -0.012573, -4.297234, -62.813789, -109.623070 
1494299208.621441, 1494299208.621441, -1.838623, +0.453003, -0.012573, -4.297234, -62.813789, -109.623070 
1494299208.625260, 1494299208.625260, -1.838623, +0.453003, -0.012573, -4.297234, -62.813789, -109.623070 
1494299208.629212, 1494299208.629212, -1.827271, +0.291382, -0.216431, -17.282463, -62.722237, -117.603416 
1494299208.633163, 1494299208.633163, -1.827271, +0.291382, -0.216431, -17.282463, -62.722237, -117.603416 
1494299208.637117, 1494299208.637117, -1.827271, +0.291382, -0.216431, -17.282463, -58.815987, -124.775047 
1494299208.641070, 1494299208.641070, -1.827271, +0.291382, -0.216431, -30.221916, -59.487373, -124.775047 
1494299208.645030, 1494299208.645030, -1.827271, +0.291382, -0.216431, -30.221916, -59.487373, -124.775047 
1494299208.648982, 1494299208.648982, -1.780029, +0.241943, -0.285278, -45.755363, -53.597481, -129.230606 
1494299208.652932, 1494299208.652932, -1.780029, +0.241943, -0.285278, -45.755363, -53.597481, -129.230606 
1494299208.656896, 1494299208.656896, -1.780029, +0.241943, -0.285278, -45.755363, -53.597481, -129.230606 
1494299208.660845, 1494299208.660845, -1.780029, +0.241943, -0.285278, -55.261589, -46.456367, -130.802261 
1494299208.664791, 1494299208.664791, -1.780029, +0.241943, -0.285278, -55.261589, -46.456367, -130.802261 
1494299208.668659, 1494299208.668659, -1.592529, +0.201294, -0.213867, -55.261589, -46.456367, -130.802261 
1494299208.672416, 1494299208.672416, -1.582764, +0.201294, -0.213867, -54.788567, -39.986641, -132.221329 
1494299208.676286, 1494299208.676286, -1.582764, +0.201294, -0.213867, -54.788567, -39.986641, -132.221329 
1494299208.680236, 1494299208.680236, -1.582764, +0.201294, -0.213867, -54.788567, -39.986641, -132.221329 
1494299208.684183, 1494299208.684183, -1.582764, +0.201294, -0.213867, -52.621819, -33.837349, -131.855118 
1494299208.688146, 1494299208.688146, -1.582764, +0.024414, -0.232666, -52.621819, -33.837349, -131.855118 
1494299208.692098, 1494299208.692098, -1.250122, +0.024414, -0.232666, -51.111198, -26.848822, -129.764664 
1494299208.696060, 1494299208.696060, -1.250122, +0.024414, -0.232666, -51.111198, -26.848822, -129.764664 
1494299208.700008, 1494299208.700008, -1.250122, +0.024414, -0.232666, -51.111198, -26.848822, -129.764664 
1494299208.703963, 1494299208.703963, -1.250122, +0.024414, -0.232666, -49.905754, -17.922430, -121.814842 
1494299208.707923, 1494299208.707923, -1.250122, -0.179077, -0.239380, -49.905754, -17.922430, -121.814842 
1494299208.711874, 1494299208.711874, -1.061768, -0.179077, -0.239380, -49.905754, -17.922430, -121.814842 
1494299208.715773, 1494299208.715773, -1.061768, -0.179077, -0.239380, -51.187492, -9.713202, -109.974022 
1494299208.719518, 1494299208.719518, -1.061768, -0.179077, -0.239380, -51.187492, -9.713202, -109.974022 
1494299208.723271, 1494299208.723271, -1.061768, -0.179077, -0.239380, -51.187492, -9.713202, -109.974022 
1494299208.727133, 1494299208.727133, -1.061768, -0.179077, +0.041870, -49.905754, -4.082708, -94.120140 
1494299208.731236, 1494299208.731236, -0.748901, +0.806274, +0.046143, -49.905754, -4.082708, -94.120140 
1494299208.735209, 1494299208.735209, -0.748901, +0.806274, +0.046143, -49.905754, +3.729792, -71.918602 
1494299208.739157, 1494299208.739157, -0.748901, +0.806274, +0.046143, -69.772697, +2.570124, -71.918602 
1494299208.743102, 1494299208.743102, -0.748901, +0.806274, +0.046143, -69.772697, +2.570124, -71.918602 
1494299208.747056, 1494299208.747056, -0.748901, +0.806274, -0.141357, -116.846062, +12.854548, -53.058739 
1494299208.751008, 1494299208.751008, -0.449097, +0.788330, -0.128418, -116.846062, +12.854548, -53.058739 
1494299208.755008, 1494299208.755008, -0.449097, +0.788330, -0.128418, -116.846062, +12.854548, -53.058739 
1494299208.758951, 1494299208.758951, -0.449097, +0.788330, -0.128418, -153.512939, +23.200006, -36.747093 
1494299208.762890, 1494299208.762890, -0.449097, +0.788330, -0.128418, -153.512939, +23.200006, -36.747093 
1494299208.766731, 1494299208.766731, -0.449097, +0.788330, -0.128418, -153.512939, +23.200006, -36.747093 
1494299208.770489, 1494299208.770489, -0.452393, +0.750488, -0.256958, -165.918335, +31.638117, -16.788597 
1494299208.774242, 1494299208.774242, -0.452393, +0.750488, -0.256958, -165.918335, +31.638117, -16.788597 
1494299208.778047, 1494299208.778047, -0.452393, +0.750488, -0.256958, -165.918335, +31.638117, -16.788597 
1494299208.781796, 1494299208.781796, -0.452393, +0.750488, -0.256958, -170.297607, +37.268608, +4.253274 
1494299208.785654, 1494299208.785654, -0.452393, +0.750488, -0.256958, -170.297607, +37.268608, +4.253274 
1494299208.789595, 1494299208.789595, -0.501221, +0.579102, -0.170898, -170.297607, +37.268608, +23.967628 
1494299208.793536, 1494299208.793536, -0.501221, +0.579102, -0.170898, -170.618042, +39.236992, +23.967628 
1494299208.797499, 1494299208.797499, -0.501221, +0.579102, -0.170898, -170.618042, +39.236992, +23.967628 
1494299208.801447, 1494299208.801447, -0.501221, +0.579102, -0.170898, -160.928711, +37.528008, +44.124489 
1494299208.805411, 1494299208.805411, -0.501221, +0.579102, -0.170898, -160.928711, +37.528008, +44.124489 
1494299208.809360, 1494299208.809360, -0.662598, +0.437256, -0.023071, -160.928711, +37.528008, +44.124489 
1494299208.813311, 1494299208.813311, -0.662598, +0.437256, -0.023071, -142.267212, +33.087700, +64.128761 
1494299208.817241, 1494299208.817241, -0.662598, +0.437256, -0.023071, -142.267212, +33.087700, +64.128761 
1494299208.821002, 1494299208.821002, -0.662598, +0.437256, -0.023071, -142.267212, +33.087700, +64.128761 
1494299208.824819, 1494299208.824819, -0.662598, +0.437256, -0.023071, -119.531609, +28.754206, +83.324318 
1494299208.828706, 1494299208.828706, -0.800781, +0.373413, +0.015259, -119.531609, +28.754206, +83.324318 
1494299208.832661, 1494299208.832661, -0.800781, +0.373413, +0.015259, -119.531609, +28.754206, +102.855568 
1494299208.836624, 1494299208.836624, -0.800781, +0.373413, +0.015259, -98.001457, +23.932428, +100.917702 
1494299208.840581, 1494299208.840581, -0.800781, +0.373413, +0.015259, -98.001457, +23.932428, +100.917702 
1494299208.844574, 1494299208.844574, -0.800781, +0.373413, +0.015259, -77.646233, +19.385309, +116.969948 
1494299208.848526, 1494299208.848526, -0.918457, +0.311401, +0.024536, -77.646233, +19.385309, +116.969948 
1494299208.852475, 1494299208.852475, -0.918457, +0.311401, +0.024536, -77.646233, +19.385309, +116.969948 
1494299208.856438, 1494299208.856438, -0.918457, +0.311401, +0.024536, -58.710075, +15.097589, +131.084335 
1494299208.860389, 1494299208.860389, -0.918457, +0.311401, +0.024536, -58.710075, +15.097589, +131.084335 
1494299208.864346, 1494299208.864346, -0.918457, +0.311401, +0.024536, -58.710075, +15.097589, +131.084335 
1494299208.868105, 1494299208.868105, -1.031494, +0.189575, -0.004028, -38.812614, +10.748835, +143.199814 
1494299208.871858, 1494299208.871858, -1.031494, +0.189575, -0.004028, -38.812614, +10.748835, +143.199814 
1494299208.875613, 1494299208.875613, -1.031494, +0.189575, -0.004028, -38.812614, +10.748835, +143.199814 
1494299208.879357, 1494299208.879357, -1.031494, +0.189575, -0.004028, -18.609978, +7.651300, +153.591049 
1494299208.883106, 1494299208.883106, -1.031494, +0.189575, -0.004028, -18.609978, +7.651300, +153.591049 
1494299208.887072, 1494299208.887072, -1.139038, +0.113403, -0.024658, -18.609978, +7.651300, +161.403549 
1494299208.891014, 1494299208.891014, -1.139038, +0.113403, -0.024658, -0.268913, +5.713434, +162.731064 
1494299208.895012, 1494299208.895012, -1.139038, +0.113403, -0.024658, -0.268913, +5.713434, +162.731064 
1494299208.898954, 1494299208.898954, -1.139038, +0.113403, -0.024658, +15.356087, +4.385920, +170.818222 
1494299208.902902, 1494299208.902902, -1.139038, +0.113403, -0.024658, +18.453621, +4.385920, +170.818222 
1494299208.906861, 1494299208.906861, -1.264038, +0.132812, -0.057739, +18.453621, +4.385920, +170.818222 
1494299208.910812, 1494299208.910812, -1.264771, +0.132812, -0.057739, +34.811043, +5.728693, +177.730453 
1494299208.914794, 1494299208.914794, -1.264771, +0.132812, -0.057739, +34.811043, +5.728693, +177.730453 
1494299208.918545, 1494299208.918545, -1.264771, +0.132812, -0.057739, +34.811043, +5.728693, +177.730453 
1494299208.922290, 1494299208.922290, -1.264771, +0.132812, -0.057739, +45.034431, +8.444757, +182.826889 
1494299208.926135, 1494299208.926135, -1.264771, +0.132812, -0.028809, +45.034431, +8.444757, +182.826889 
1494299208.930084, 1494299208.930084, -1.357666, +0.130493, -0.028809, +45.034431, +8.444757, +182.826889 
1494299208.934031, 1494299208.934031, -1.357666, +0.130493, -0.028809, +50.649666, +13.113947, +186.366928 
1494299208.938027, 1494299208.938027, -1.357666, +0.130493, -0.028809, +50.649666, +13.113947, +186.366928 
1494299208.941980, 1494299208.941980, -1.357666, +0.130493, -0.028809, +50.649666, +13.113947, +188.030136 
1494299208.945935, 1494299208.945935, -1.357666, +0.067993, -0.010498, +51.046394, +17.859430, +188.030136 
1494299208.949876, 1494299208.949876, -1.434204, +0.092773, -0.010498, +51.046394, +17.859430, +188.030136 
1494299208.953828, 1494299208.953828, -1.434204, +0.092773, -0.010498, +48.009895, +21.750422, +188.930405 
1494299208.957818, 1494299208.957818, -1.434204, +0.092773, -0.010498, +48.009895, +21.750422, +188.930405 
1494299208.961760, 1494299208.961760, -1.434204, +0.092773, -0.010498, +48.009895, +21.750422, +188.930405 
1494299208.965764, 1494299208.965764, -1.434204, +0.092773, +0.003540, +43.279671, +25.427790, +188.396347 
1494299208.969520, 1494299208.969520, -1.494019, +0.087158, +0.003540, +43.279671, +25.427790, +188.396347 
1494299208.973276, 1494299208.973276, -1.494019, +0.087158, +0.003540, +43.279671, +25.427790, +188.396347 
1494299208.977219, 1494299208.977219, -1.494019, +0.087158, +0.003540, +36.077522, +28.159113, +187.084091 
1494299208.981170, 1494299208.981170, -1.494019, +0.087158, +0.003540, +36.077522, +28.159113, +187.084091 
1494299208.985119, 1494299208.985119, -1.494019, +0.087158, -0.090210, +36.077522, +28.159113, +183.177841 
1494299208.989073, 1494299208.989073, -1.587769, +0.107910, -0.065552, +28.036140, +32.233208, +184.657944 
1494299208.993025, 1494299208.993025, -1.587769, +0.107910, -0.065552, +28.036140, +32.233208, +184.657944 
1494299208.997018, 1494299208.997018, -1.587769, +0.107910, -0.065552, +15.630745, +37.100761, +182.430161 
1494299209.000974, 1494299209.000974, -1.587769, +0.107910, -0.065552, +15.630745, +37.100761, +182.430161 
1494299209.004940, 1494299209.004940, -1.587769, +0.107910, -0.065552, +15.630745, +37.100761, +182.430161 
1494299209.008883, 1494299209.008883, -1.666138, +0.054932, -0.149780, -0.680901, +42.334526, +178.798569 
1494299209.012821, 1494299209.012821, -1.666138, +0.054932, -0.149780, -0.680901, +42.334526, +178.798569 
1494299209.016721, 1494299209.016721, -1.666138, +0.054932, -0.149780, -0.680901, +42.334526, +178.798569 
1494299209.020471, 1494299209.020471, -1.666138, +0.054932, -0.149780, -19.403435, +44.852226, +172.054184 
1494299209.024225, 1494299209.024225, -1.666138, +0.054932, -0.149780, -19.403435, +44.852226, +172.054184 
1494299209.027971, 1494299209.027971, -1.599121, -0.210327, -0.154419, -19.403435, +44.852226, +172.054184 
1494299209.031719, 1494299209.031719, -1.599121, -0.210327, -0.154419, -38.263298, +46.317070, +163.234604 
1494299209.035533, 1494299209.035533, -1.599121, -0.210327, -0.154419, -38.263298, +46.317070, +163.234604 
1494299209.039480, 1494299209.039480, -1.599121, -0.210327, -0.154419, -38.263298, +46.317070, +155.422104 
1494299209.043419, 1494299209.043419, -1.599121, -0.210327, -0.154419, -49.066521, +49.521416, +152.522934 
1494299209.047373, 1494299209.047373, -1.462646, -0.354736, -0.196045, -49.066521, +49.521416, +152.522934 
1494299209.051318, 1494299209.051318, -1.462646, -0.354736, -0.196045, -52.972771, +52.100151, +139.949692 
1494299209.055282, 1494299209.055282, -1.462646, -0.354736, -0.196045, -54.941154, +52.100151, +139.949692 
1494299209.059224, 1494299209.059224, -1.462646, -0.354736, -0.196045, -54.941154, +52.100151, +139.949692 
1494299209.063175, 1494299209.063175, -1.462646, -0.354736, -0.196045, -58.496452, +52.267998, +125.957375 
1494299209.067133, 1494299209.067133, -1.432373, -0.389771, +0.144287, -58.496452, +52.267998, +125.957375 
1494299209.071076, 1494299209.071076, -1.432373, -0.389771, +0.144287, -58.496452, +52.267998, +125.957375 
1494299209.075012, 1494299209.075012, -1.432373, -0.389771, +0.144287, -61.304070, +44.379204, +111.827736 
1494299209.078761, 1494299209.078761, -1.432373, -0.389771, +0.144287, -61.304070, +44.379204, +111.827736 
1494299209.082515, 1494299209.082515, -1.432373, -0.389771, +0.144287, -61.304070, +44.379204, +111.827736 
1494299209.086434, 1494299209.086434, -1.324707, -0.570923, -0.146851, -74.792839, +36.368340, +94.066505 
1494299209.090376, 1494299209.090376, -1.324707, -0.570923, -0.146851, -74.792839, +36.368340, +94.066505 
1494299209.094325, 1494299209.094325, -1.324707, -0.570923, -0.146851, -74.792839, +36.368340, +69.545631 
1494299209.098275, 1494299209.098275, -1.324707, -0.570923, -0.146851, -91.974236, +32.523125, +69.545631 
1494299209.102225, 1494299209.102225, -1.324707, -0.570923, -0.146851, -91.974236, +32.523125, +69.545631 
1494299209.106219, 1494299209.106219, -1.223633, -1.222290, -0.120605, -88.663078, +31.119318, +37.456398 
1494299209.110168, 1494299209.110168, -1.223633, -1.222290, -0.120605, -88.663078, +31.119318, +37.456398 
1494299209.114226, 1494299209.114226, -1.223633, -1.222290, -0.120605, -88.663078, +31.119318, +37.456398 
1494299209.117986, 1494299209.117986, -1.223633, -1.222290, -0.120605, -70.932365, +27.502985, +2.666360 
1494299209.121732, 1494299209.121732, -1.223633, -1.222290, -0.120605, -70.932365, +27.502985, +2.666360 
1494299209.125548, 1494299209.125548, -1.153687, -0.865723, -0.068481, -70.932365, +27.502985, +2.666360 
1494299209.129503, 1494299209.129503, -1.153687, -0.865723, -0.068481, -57.901360, +23.795099, -28.904076 
1494299209.133453, 1494299209.133453, -1.153687, -0.865723, -0.068481, -57.901360, +23.795099, -28.904076 
1494299209.137446, 1494299209.137446, -1.153687, -0.865723, -0.068481, -57.901360, +23.795099, -28.904076 
1494299209.141390, 1494299209.141390, -1.153687, -0.865723, -0.068481, -54.742790, +25.366755, -54.050560 
1494299209.145344, 1494299209.145344, -1.209839, -0.813232, -0.086182, -54.742790, +25.366755, -54.050560 
1494299209.149287, 1494299209.149287, -1.209839, -0.813232, -0.086182, -58.649040, +24.573298, -75.489159 
1494299209.153233, 1494299209.153233, -1.209839, -0.813232, -0.086182, -55.612541, +24.573298, -75.489159 
1494299209.157227, 1494299209.157227, -1.209839, -0.813232, -0.086182, -55.612541, +24.573298, -75.489159 
1494299209.161176, 1494299209.161176, -1.209839, -0.813232, -0.086182, -54.544426, +19.293756, -95.844383 
1494299209.165084, 1494299209.165084, -1.270264, -0.686523, -0.228638, -54.544426, +19.293756, -95.844383 
1494299209.168838, 1494299209.168838, -1.270264, -0.686523, -0.228638, -54.544426, +19.293756, -95.844383 
1494299209.172588, 1494299209.172588, -1.270264, -0.686523, -0.228638, -32.159782, +17.142267, -106.601830 
1494299209.176464, 1494299209.176464, -1.270264, -0.686523, -0.228638, -32.159782, +17.142267, -106.601830 
1494299209.180411, 1494299209.180411, -1.270264, -0.686523, -0.228638, -32.159782, +17.142267, -106.601830 
1494299209.184369, 1494299209.184369, -1.270264, +3.377563, +0.161133, +15.356087, +8.795710, -100.238914 
1494299209.188311, 1494299209.188311, -1.767700, +3.377563, +0.161133, +15.356087, +8.795710, -100.238914 
1494299209.192256, 1494299209.192256, -1.767700, +3.377563, +0.161133, +15.356087, +8.795710, -79.990501 
1494299209.196212, 1494299209.196212, -1.767700, +3.377563, +0.161133, +32.354378, +4.553766, -79.990501 
1494299209.200158, 1494299209.200158, -1.767700, +3.377563, +0.161133, +32.354378, +4.553766, -79.990501 
1494299209.204097, 1494299209.204097, -1.767700, -0.744629, +0.538940, -49.219109, +7.880182, -90.717430 
1494299209.208056, 1494299209.208056, -1.631714, -0.744629, +0.538940, -49.219109, +7.880182, -90.717430 
1494299209.212002, 1494299209.212002, -1.631714, -0.744629, +0.538940, -49.219109, +7.880182, -90.717430 
1494299209.215873, 1494299209.215873, -1.631714, -0.744629, +0.538940, -99.603630, +10.992975, -117.054100 
1494299209.219625, 1494299209.219625, -1.631714, -0.744629, +0.538940, -99.603630, +10.992975, -117.054100 
1494299209.223378, 1494299209.223378, -1.631714, -0.744629, -0.179810, -99.603630, +10.992975, -117.054100 
1494299209.227292, 1494299209.227292, -1.736572, +0.079956, -0.170654, -55.200554, +23.474665, -129.871475 
1494299209.231233, 1494299209.231233, -1.736572, +0.079956, -0.170654, -55.200554, +23.474665, -129.871475 
1494299209.235228, 1494299209.235228, -1.736572, +0.079956, -0.170654, -55.200554, +23.474665, -129.871475 
1494299209.239180, 1494299209.239180, -1.736572, +0.079956, -0.170654, -48.288322, +34.888237, -130.298721 
1494299209.243131, 1494299209.243131, -1.736572, +0.079956, -0.233154, -48.288322, +34.888237, -130.298721 
1494299209.247104, 1494299209.247104, -0.948486, +0.312378, -0.224487, -48.288322, +36.108940, -126.606102 
1494299209.251052, 1494299209.251052, -0.948486, +0.312378, -0.224487, -90.372063, +36.108940, -126.606102 
1494299209.255010, 1494299209.255010, -0.948486, +0.312378, -0.224487, -90.372063, +36.108940, -126.606102 
1494299209.258962, 1494299209.258962, -0.948486, +0.312378, -0.224487, -113.016106, +33.331841, -121.479149 
1494299209.262910, 1494299209.262910, -0.948486, +0.312378, -0.224487, -113.016106, +33.331841, -121.479149 
1494299209.266859, 1494299209.266859, -0.987549, -0.244995, -0.392822, -113.016106, +33.331841, -121.479149 
1494299209.270619, 1494299209.270619, -0.987549, -0.244995, -0.392822, -100.580193, +29.807062, -112.903709 
1494299209.274365, 1494299209.274365, -0.987549, -0.244995, -0.392822, -100.580193, +29.807062, -112.903709 
1494299209.278117, 1494299209.278117, -0.987549, -0.244995, -0.392822, -100.580193, +29.807062, -112.903709 
1494299209.281864, 1494299209.281864, -0.987549, -0.244995, -0.392822, -72.580315, +23.001642, -104.435081 
1494299209.285705, 1494299209.285705, -1.209595, -0.059937, -0.112549, -72.580315, +23.001642, -104.435081 
1494299209.289655, 1494299209.289655, -1.209595, -0.059937, -0.112549, -72.580315, +23.001642, -104.435081 
1494299209.293607, 1494299209.293607, -1.209595, -0.059937, -0.112549, -54.574944, +17.615290, -96.408958 
1494299209.297565, 1494299209.297565, -1.209595, -0.059937, -0.112549, -54.574944, +17.615290, -96.408958 
1494299209.301516, 1494299209.301516, -1.209595, -0.059937, -0.112549, -54.574944, +13.709040, -88.260765 
1494299209.305479, 1494299209.305479, -1.252808, -0.136353, -0.102661, -36.874748, +14.624567, -88.260765 
1494299209.309425, 1494299209.309425, -1.252808, -0.136353, -0.102661, -36.874748, +14.624567, -88.260765 
1494299209.313371, 1494299209.313371, -1.252808, -0.136353, -0.102661, -17.328239, +14.838190, -78.983421 
1494299209.317330, 1494299209.317330, -1.252808, -0.136353, -0.102661, -17.328239, +14.838190, -78.983421 
1494299209.321281, 1494299209.321281, -1.252808, -0.136353, -0.102661, -17.328239, +14.838190, -78.983421 
1494299209.325194, 1494299209.325194, -1.103027, +0.060547, -0.070923, -8.829094, +14.838190, -70.224876 
1494299209.328939, 1494299209.328939, -1.103027, +0.060547, -0.070923, -8.829094, +14.838190, -70.224876 
1494299209.332696, 1494299209.332696, -1.103027, +0.060547, -0.070923, -8.829094, +14.838190, -70.224876 
1494299209.336596, 1494299209.336596, -1.103027, +0.060547, -0.070923, -7.623650, +15.326471, -63.572044 
1494299209.340544, 1494299209.340544, -1.103027, +0.060547, -0.070923, -7.623650, +15.326471, -63.572044 
1494299209.344542, 1494299209.344542, -1.088501, +0.140747, -0.015991, -7.623650, +15.326471, -55.759544 
1494299209.348487, 1494299209.348487, -1.088501, +0.140747, -0.015991, -9.012199, +19.354792, -58.948631 
1494299209.352433, 1494299209.352433, -1.088501, +0.140747, -0.015991, -9.012199, +19.354792, -58.948631 
1494299209.356421, 1494299209.356421, -1.088501, +0.140747, -0.015991, -14.795280, +24.390192, -55.591698 
1494299209.360365, 1494299209.360365, -1.088501, +0.140747, -0.015991, -14.795280, +24.390192, -55.591698 
1494299209.364319, 1494299209.364319, -1.109131, +0.121948, -0.074707, -14.795280, +24.390192, -55.591698 
1494299209.368272, 1494299209.368272, -1.109131, +0.121948, -0.074707, -21.127678, +28.342218, -52.814598 
1494299209.372218, 1494299209.372218, -1.109131, +0.121948, -0.074707, -21.127678, +28.342218, -52.814598 
1494299209.376148, 1494299209.376148, -1.109131, +0.121948, -0.074707, -21.127678, +28.342218, -52.814598 
1494299209.379902, 1494299209.379902, -1.109131, +0.121948, -0.074707, -24.393059, +30.310602, -49.350853 
1494299209.383659, 1494299209.383659, -1.105347, +0.046021, -0.256714, -24.393059, +30.310602, -49.350853 
1494299209.387675, 1494299209.387675, -1.105347, +0.046021, -0.256714, -24.393059, +30.310602, -49.350853 
1494299209.391630, 1494299209.391630, -1.105347, +0.046021, -0.256714, -21.783806, +29.089899, -45.444603 
1494299209.395627, 1494299209.395627, -1.105347, +0.046021, -0.256714, -21.783806, +29.089899, -45.444603 
1494299209.399570, 1494299209.399570, -1.105347, +0.046021, -0.256714, -21.783806, +25.656672, -41.431541 
1494299209.403520, 1494299209.403520, -1.115479, +0.015747, -0.319336, -13.101555, +25.656672, -41.431541 
1494299209.407482, 1494299209.407482, -1.115479, +0.015747, -0.319336, -13.101555, +25.656672, -41.431541 
1494299209.411430, 1494299209.411430, -1.115479, +0.015747, -0.319336, -1.138664, +21.323175, -36.563988 
1494299209.415531, 1494299209.415531, -1.115479, +0.015747, -0.319336, -1.138664, +21.323175, -36.563988 
1494299209.419480, 1494299209.419480, -1.115479, +0.015747, -0.319336, -1.138664, +21.323175, -36.563988 
1494299209.423419, 1494299209.423419, -1.116089, +0.019287, -0.253540, +11.999153, +18.546076, -32.184715 
1494299209.427221, 1494299209.427221, -1.116089, +0.019287, -0.253540, +11.999153, +18.546076, -32.184715 
1494299209.430976, 1494299209.430976, -1.116089, +0.019287, -0.253540, +11.999153, +18.546076, -32.184715 
1494299209.434783, 1494299209.434783, -1.116089, +0.019287, -0.253540, +23.397469, +16.531916, -28.629417 
1494299209.438731, 1494299209.438731, -1.116089, +0.019287, -0.253540, +23.397469, +16.531916, -28.629417 
1494299209.442681, 1494299209.442681, -1.147339, +0.086792, -0.171265, +23.397469, +16.531916, -27.744408 
1494299209.446640, 1494299209.446640, -1.144043, +0.086792, -0.171265, +30.828499, +16.135187, -27.744408 
1494299209.450592, 1494299209.450592, -1.144043, +0.086792, -0.171265, +30.828499, +16.135187, -27.744408 
1494299209.454582, 1494299209.454582, -1.144043, +0.086792, -0.171265, +29.943489, +16.272516, -28.705711 
1494299209.458532, 1494299209.458532, -1.144043, +0.086792, -0.171265, +29.943489, +16.272516, -28.705711 
1494299209.462473, 1494299209.462473, -1.144043, +0.176880, -0.176636, +29.943489, +16.272516, -28.705711 
1494299209.466427, 1494299209.466427, -1.140991, +0.176880, -0.176636, +19.063972, +16.638727, -30.918236 
1494299209.470376, 1494299209.470376, -1.140991, +0.176880, -0.176636, +19.063972, +16.638727, -30.918236 
1494299209.474333, 1494299209.474333, -1.140991, +0.176880, -0.176636, +19.063972, +16.638727, -30.918236 
1494299209.478087, 1494299209.478087, -1.140991, +0.176880, -0.176636, +7.390999, +15.631647, -33.771629 
1494299209.481836, 1494299209.481836, -1.140991, +0.176880, -0.223145, +7.390999, +15.631647, -33.771629 
1494299209.485636, 1494299209.485636, -1.135742, +0.136108, -0.223145, +7.390999, +15.631647, -33.771629 
1494299209.489521, 1494299209.489521, -1.135742, +0.136108, -0.223145, +0.860237, +14.395685, -36.304588 
1494299209.493407, 1494299209.493407, -1.135742, +0.136108, -0.223145, +0.860237, +14.395685, -36.304588 
1494299209.497370, 1494299209.497370, -1.135742, +0.136108, -0.223145, +0.860237, +10.489435, -37.494774 
1494299209.501314, 1494299209.501314, -1.135742, +0.136108, -0.316895, +0.173592, +12.137384, -37.494774 
1494299209.505269, 1494299209.505269, -1.120850, +0.033203, -0.317993, +0.173592, +12.137384, -37.494774 
1494299209.509220, 1494299209.509220, -1.120850, +0.033203, -0.317993, +6.338142, +9.665461, -37.586327 
1494299209.513161, 1494299209.513161, -1.120850, +0.033203, -0.317993, +6.338142, +9.665461, -37.586327 
1494299209.516975, 1494299209.516975, -1.120850, +0.033203, -0.317993, +6.338142, +9.665461, -37.586327 
1494299209.520725, 1494299209.520725, -1.120850, +0.033203, -0.317993, +12.426399, +8.109064, -37.342186 
1494299209.524473, 1494299209.524473, -1.093872, +0.116333, -0.275635, +12.426399, +8.109064, -37.342186 
1494299209.528231, 1494299209.528231, -1.093872, +0.116333, -0.275635, +12.426399, +8.109064, -37.342186 
1494299209.531985, 1494299209.531985, -1.093872, +0.116333, -0.275635, +11.724495, +7.346125, -37.662621 
1494299209.535853, 1494299209.535853, -1.093872, +0.116333, -0.275635, +11.724495, +7.346125, -37.662621 
1494299209.539807, 1494299209.539807, -1.093872, +0.116333, -0.275635, +11.724495, +7.346125, -37.662621 
1494299209.543756, 1494299209.543756, -1.121094, +0.085815, -0.205322, +5.758308, +7.269831, -39.692039 
1494299209.547711, 1494299209.547711, -1.121094, +0.085815, -0.205322, +5.758308, +7.269831, -39.692039 
1494299209.551654, 1494299209.551654, -1.121094, +0.085815, -0.205322, +5.758308, +7.269831, -41.751976 
1494299209.555616, 1494299209.555616, -1.121094, +0.085815, -0.205322, -0.101067, +7.697077, -41.751976 
1494299209.559561, 1494299209.559561, -1.121094, +0.085815, -0.205322, -0.101067, +7.697077, -41.751976 
1494299209.563513, 1494299209.563513, -1.141235, +0.030396, -0.190063, -3.076530, +8.490534, -42.820091 
1494299209.567563, 1494299209.567563, -1.141235, +0.030396, -0.190063, -3.076530, +8.490534, -42.820091 
1494299209.571505, 1494299209.571505, -1.141235, +0.030396, -0.190063, -3.076530, +8.490534, -42.820091 
1494299209.575421, 1494299209.575421, -1.141235, +0.030396, -0.190063, -3.152824, +9.009333, -42.987938 
1494299209.579173, 1494299209.579173, -1.141235, +0.030396, -0.190063, -3.152824, +9.009333, -42.987938 
1494299209.582921, 1494299209.582921, -1.126709, -0.024536, -0.247437, -3.152824, +9.009333, -42.987938 
1494299209.586826, 1494299209.586826, -1.126709, -0.024536, -0.247437, -0.711418, +8.933039, -42.606468 
1494299209.590777, 1494299209.590777, -1.126709, -0.024536, -0.247437, -0.711418, +8.933039, -42.606468 
1494299209.594723, 1494299209.594723, -1.126709, -0.024536, -0.247437, -0.711418, +8.933039, -42.606468 
1494299209.598668, 1494299209.598668, -1.126709, -0.024536, -0.247437, +2.645515, +8.887262, -41.919823 
1494299209.602609, 1494299209.602609, -1.127441, -0.031494, -0.216675, +2.645515, +8.887262, -41.919823 
1494299209.606561, 1494299209.606561, -1.127441, -0.031494, -0.216675, +2.645515, +8.551569, -41.782494 
1494299209.610506, 1494299209.610506, -1.127441, -0.031494, -0.216675, +4.400276, +8.551569, -41.782494 
1494299209.614458, 1494299209.614458, -1.127441, -0.031494, -0.216675, +4.400276, +8.551569, -41.782494 
1494299209.618399, 1494299209.618399, -1.127441, -0.031494, -0.216675, +4.400276, +7.971735, -41.797752 
1494299209.622336, 1494299209.622336, -1.150757, -0.026489, -0.241943, +4.400276, +7.971735, -41.797752 
1494299209.626208, 1494299209.626208, -1.150757, -0.026489, -0.241943, +4.400276, +7.971735, -41.797752 
1494299209.629961, 1494299209.629961, -1.150757, -0.026489, -0.241943, +4.674934, +7.788630, -41.370506 
1494299209.633713, 1494299209.633713, -1.150757, -0.026489, -0.241943, +4.674934, +7.788630, -41.370506 
1494299209.637500, 1494299209.637500, -1.150757, -0.026489, -0.241943, +4.674934, +7.788630, -41.370506 
1494299209.641250, 1494299209.641250, -1.150757, -0.029419, -0.267334, +5.941414, +8.002253, -40.668602 
1494299209.645028, 1494299209.645028, -1.138428, -0.029419, -0.267334, +5.941414, +8.002253, -40.668602 
1494299209.648979, 1494299209.648979, -1.138428, -0.029419, -0.267334, +5.941414, +8.002253, -40.668602 
1494299209.652916, 1494299209.652916, -1.138428, -0.029419, -0.267334, +7.635139, +8.292170, -40.439720 
1494299209.656870, 1494299209.656870, -1.138428, -0.029419, -0.267334, +7.635139, +8.292170, -40.439720 
1494299209.660810, 1494299209.660810, -1.138428, -0.066040, -0.233765, +7.635139, +12.198420, -39.661522 
1494299209.664806, 1494299209.664806, -1.140259, -0.066040, -0.233765, +10.519051, +8.948298, -39.661522 
1494299209.668742, 1494299209.668742, -1.140259, -0.066040, -0.233765, +10.519051, +8.948298, -39.661522 
1494299209.672689, 1494299209.672689, -1.140259, -0.066040, -0.233765, +12.258553, +10.275812, -39.051170 
1494299209.676544, 1494299209.676544, -1.140259, -0.066040, -0.233765, +12.258553, +10.275812, -39.051170 
1494299209.680310, 1494299209.680310, -1.140259, -0.066040, -0.145386, +12.258553, +10.275812, -39.051170 
1494299209.684066, 1494299209.684066, -1.152344, -0.038574, -0.145386, +10.503792, +10.382624, -38.868065 
1494299209.688047, 1494299209.688047, -1.152344, -0.038574, -0.145386, +10.503792, +10.382624, -38.868065 
1494299209.692002, 1494299209.692002, -1.152344, -0.038574, -0.145386, +10.503792, +10.382624, -38.868065 
1494299209.695958, 1494299209.695958, -1.152344, -0.038574, -0.145386, +5.895638, +10.062189, -39.310570 
1494299209.699907, 1494299209.699907, -1.152344, -0.038574, -0.163818, +5.895638, +10.062189, -39.310570 
1494299209.703845, 1494299209.703845, -1.194214, -0.039551, -0.163818, +5.895638, +10.062189, -43.216820 
1494299209.707832, 1494299209.707832, -1.194214, -0.039551, -0.163818, +1.150154, +9.314508, -40.088768 
1494299209.711776, 1494299209.711776, -1.194214, -0.039551, -0.163818, +1.150154, +9.314508, -40.088768 
1494299209.715829, 1494299209.715829, -1.194214, -0.039551, -0.163818, -0.329948, +9.177179, -40.821190 
1494299209.719778, 1494299209.719778, -1.194214, -0.039551, -0.194946, -0.329948, +9.177179, -40.821190 
1494299209.723715, 1494299209.723715, -1.234497, -0.084961, -0.194946, -0.329948, +9.177179, -40.821190 
1494299209.727511, 1494299209.727511, -1.234497, -0.084961, -0.194946, +2.264046, +8.215876, -41.050072 
1494299209.731252, 1494299209.731252, -1.234497, -0.084961, -0.194946, +2.264046, +8.215876, -41.050072 
1494299209.735045, 1494299209.735045, -1.234497, -0.084961, -0.194946, +2.264046, +8.215876, -41.050072 
1494299209.738991, 1494299209.738991, -1.234497, -0.084961, -0.194946, +6.795906, +7.468195, -40.866966 
1494299209.742938, 1494299209.742938, -1.192139, -0.131104, -0.185547, +6.795906, +7.468195, -40.866966 
1494299209.746966, 1494299209.746966, -1.192139, -0.131104, -0.185547, +6.795906, +7.468195, -40.866966 
1494299209.750911, 1494299209.750911, -1.192139, -0.131104, -0.185547, +12.014412, +7.513971, -41.324730 
1494299209.754873, 1494299209.754873, -1.192139, -0.131104, -0.185547, +12.014412, +7.513971, -41.324730 
1494299209.758813, 1494299209.758813, -1.192139, -0.131104, -0.185547, +12.014412, +7.513971, -42.545433 
1494299209.762763, 1494299209.762763, -1.175537, -0.086060, -0.207642, +14.211678, +6.705256, -42.545433 
1494299209.766604, 1494299209.766604, -1.175537, -0.086060, -0.207642, +14.211678, +6.705256, -42.545433 
1494299209.770359, 1494299209.770359, -1.175537, -0.086060, -0.207642, +14.303230, +5.408258, -44.910545 
1494299209.774104, 1494299209.774104, -1.175537, -0.086060, -0.207642, +14.303230, +5.408258, -44.910545 
1494299209.777919, 1494299209.777919, -1.175537, -0.086060, -0.207642, +14.303230, +5.408258, -44.910545 
1494299209.781673, 1494299209.781673, -1.187500, -0.065308, -0.252441, +14.745735, +3.973932, -47.992821 
1494299209.785436, 1494299209.785436, -1.187500, -0.065308, -0.252441, +14.745735, +3.973932, -47.992821 
1494299209.789186, 1494299209.789186, -1.187500, -0.065308, -0.252441, +14.745735, +3.973932, -47.992821 
1494299209.792929, 1494299209.792929, -1.187500, -0.065308, -0.252441, +15.539192, +2.753229, -51.578636 
1494299209.796848, 1494299209.796848, -1.187500, -0.065308, -0.252441, +15.539192, +2.753229, -51.578636 
1494299209.800792, 1494299209.800792, -1.230835, -0.031494, -0.265747, +15.539192, +2.753229, -51.578636 
1494299209.804790, 1494299209.804790, -1.230835, -0.031494, -0.265747, +15.813850, +1.456232, -55.881615 
1494299209.808740, 1494299209.808740, -1.230835, -0.031494, -0.265747, +15.813850, +1.456232, -55.881615 
1494299209.812685, 1494299209.812685, -1.230835, -0.031494, -0.265747, +15.813850, +1.456232, -59.787865 
1494299209.816647, 1494299209.816647, -1.230835, -0.031494, -0.265747, +14.913582, -0.023871, -60.642357 
1494299209.820601, 1494299209.820601, -1.287842, -0.018066, -0.229980, +14.913582, -0.023871, -60.642357 
1494299209.824588, 1494299209.824588, -1.287842, -0.018066, -0.229980, +14.913582, -1.397162, -65.693016 
1494299209.828533, 1494299209.828533, -1.287842, -0.018066, -0.229980, +12.762093, -1.397162, -65.693016 
1494299209.832482, 1494299209.832482, -1.287842, -0.018066, -0.229980, +12.762093, -1.397162, -65.693016 
1494299209.836338, 1494299209.836338, -1.287842, -0.018066, -0.229980, +9.405159, -3.579168, -71.048851 
1494299209.840086, 1494299209.840086, -1.308960, -0.033936, -0.217285, +9.405159, -3.579168, -71.048851 
1494299209.843835, 1494299209.843835, -1.308960, -0.033936, -0.217285, +9.405159, -3.579168, -71.048851 
1494299209.847764, 1494299209.847764, -1.308960, -0.033936, -0.217285, +6.963753, -5.272894, -76.023216 
1494299209.851705, 1494299209.851705, -1.308960, -0.033936, -0.217285, +6.963753, -5.272894, -76.023216 
1494299209.855660, 1494299209.855660, -1.308960, -0.033936, -0.217285, +6.963753, -5.272894, -76.023216 
1494299209.859603, 1494299209.859603, -1.371460, -0.025879, -0.172607, +6.338142, -6.432562, -80.799217 
1494299209.863539, 1494299209.863539, -1.353271, -0.025879, -0.172607, +6.338142, -6.432562, -80.799217 
1494299209.867607, 1494299209.867607, -1.353271, -0.025879, -0.172607, +6.338142, -10.338812, -85.346336 
1494299209.871554, 1494299209.871554, -1.353271, -0.025879, -0.172607, +5.239510, -7.287054, -85.346336 
1494299209.875511, 1494299209.875511, -1.353271, -0.025879, -0.172607, +5.239510, -7.287054, -85.346336 
1494299209.879459, 1494299209.879459, -1.353271, -0.028442, -0.146240, +3.088020, -8.553534, -90.183372 
1494299209.883401, 1494299209.883401, -1.345703, -0.028442, -0.146240, +3.088020, -8.553534, -90.183372 
1494299209.887218, 1494299209.887218, -1.345703, -0.028442, -0.146240, +3.088020, -8.553534, -90.183372 
1494299209.890961, 1494299209.890961, -1.345703, -0.028442, -0.146240, +1.836800, -9.621649, -94.852562 
1494299209.894715, 1494299209.894715, -1.345703, -0.028442, -0.146240, +1.836800, -9.621649, -94.852562 
1494299209.898453, 1494299209.898453, -1.345703, -0.028442, -0.187744, +1.836800, -9.621649, -94.852562 
1494299209.902193, 1494299209.902193, -1.372192, -0.018433, -0.187744, +0.906013, -10.613470, -99.414940 
1494299209.906059, 1494299209.906059, -1.372192, -0.018433, -0.187744, +0.906013, -10.613470, -99.414940 
1494299209.910016, 1494299209.910016, -1.372192, -0.018433, -0.187744, +0.906013, -10.613470, -99.414940 
1494299209.913964, 1494299209.913964, -1.372192, -0.018433, -0.187744, +3.332161, -12.047796, -104.190941 
1494299209.917918, 1494299209.917918, -1.372192, -0.018433, -0.187744, +3.332161, -12.047796, -104.190941 
1494299209.921865, 1494299209.921865, -1.505981, +0.030640, -0.103027, +3.332161, -12.047796, -109.638329 
1494299209.925834, 1494299209.925834, -1.505981, +0.030640, -0.103027, +7.390999, -15.542059, -109.638329 
1494299209.929781, 1494299209.929781, -1.505981, +0.030640, -0.103027, +7.390999, -15.542059, -109.638329 
1494299209.933730, 1494299209.933730, -1.505981, +0.030640, -0.103027, +7.116341, -22.606878, -116.413231 
1494299209.937525, 1494299209.937525, -1.505981, +0.030640, -0.103027, +7.116341, -22.606878, -116.413231 
1494299209.941286, 1494299209.941286, -1.734253, +0.313721, -0.169434, +7.116341, -22.606878, -116.413231 
1494299209.945091, 1494299209.945091, -1.734253, +0.313721, -0.169434, +7.192635, -28.939276, -122.882957 
1494299209.949043, 1494299209.949043, -1.734253, +0.313721, -0.169434, +7.192635, -28.939276, -122.882957 
1494299209.952993, 1494299209.952993, -1.734253, +0.313721, -0.169434, +7.192635, -28.939276, -122.882957 
1494299209.956951, 1494299209.956951, -1.734253, +0.313721, -0.169434, +12.060188, -31.304388, -129.886734 
1494299209.960898, 1494299209.960898, -1.746094, +0.399048, -0.099365, +12.060188, -31.304388, -129.886734 
1494299209.964859, 1494299209.964859, -1.746094, +0.399048, -0.099365, +12.060188, -31.304388, -129.886734 
1494299209.968806, 1494299209.968806, -1.746094, +0.399048, -0.099365, +25.350594, -32.570869, -137.409317 
1494299209.972758, 1494299209.972758, -1.746094, +0.399048, -0.099365, +25.350594, -32.570869, -137.409317 
1494299209.976726, 1494299209.976726, -1.746094, +0.399048, -0.099365, +25.350594, -33.135445, -143.818008 
1494299209.980671, 1494299209.980671, -1.739136, +0.798340, +0.006592, +38.869881, -33.135445, -143.818008 
1494299209.984628, 1494299209.984628, -1.739136, +0.798340, +0.006592, +38.869881, -33.135445, -143.818008 
1494299209.988383, 1494299209.988383, -1.739136, +0.798340, +0.006592, +43.249153, -28.985052, -149.189102 
1494299209.992142, 1494299209.992142, -1.739136, +0.798340, +0.006592, +43.249153, -28.985052, -149.189102 
1494299209.996042, 1494299209.996042, -1.739136, +0.798340, +0.006592, +43.249153, -28.985052, -149.189102 
1494299209.999993, 1494299209.999993, -1.632690, +0.688110, -0.175903, +24.648689, -21.950750, -156.818497 
1494299210.003944, 1494299210.003944, -1.632690, +0.688110, -0.175903, +24.648689, -21.950750, -156.818497 
1494299210.007899, 1494299210.007899, -1.632690, +0.688110, -0.175903, +24.648689, -21.950750, -156.818497 
1494299210.011849, 1494299210.011849, -1.632690, +0.688110, -0.175903, -13.559319, -15.175848, -172.626602 
1494299210.015920, 1494299210.015920, -1.632690, +0.688110, -0.175903, -13.559319, -15.175848, -172.626602 
1494299210.019881, 1494299210.019881, -1.827271, -0.296387, -0.225342, -13.559319, -15.175848, -193.592178 
1494299210.023837, 1494299210.023837, -1.827271, -0.296387, -0.225342, -56.009270, -7.454901, -193.592178 
1494299210.027671, 1494299210.027671, -1.827271, -0.296387, -0.225342, -56.009270, -7.454901, -193.592178 
1494299210.031417, 1494299210.031417, -1.827271, -0.296387, -0.225342, -75.540520, -4.494696, -202.945816 
1494299210.035203, 1494299210.035203, -1.827271, -0.296387, -0.225342, -75.357414, -4.494696, -202.945816 
1494299210.038946, 1494299210.038946, -1.858032, -0.380981, -0.454590, -75.357414, -4.494696, -202.945816 
1494299210.042689, 1494299210.042689, -1.858032, -0.380981, -0.454590, -65.546013, -0.679999, -193.546402 
1494299210.046553, 1494299210.046553, -1.858032, -0.380981, -0.454590, -65.546013, -0.679999, -193.546402 
1494299210.050495, 1494299210.050495, -1.858032, -0.380981, -0.454590, -65.546013, -0.679999, -193.546402 
1494299210.054455, 1494299210.054455, -1.858032, -0.380981, -0.454590, -52.835442, +6.293268, -175.953018 
1494299210.058404, 1494299210.058404, -1.637573, +0.189331, -0.528442, -52.835442, +6.293268, -175.953018 
1494299210.062355, 1494299210.062355, -1.637573, +0.189331, -0.528442, -52.835442, +6.293268, -175.953018 
1494299210.066322, 1494299210.066322, -1.637573, +0.189331, -0.528442, -45.206047, +11.694880, -161.457169 
1494299210.070269, 1494299210.070269, -1.637573, +0.189331, -0.528442, -45.206047, +11.694880, -161.457169 
1494299210.074220, 1494299210.074220, -1.637573, +0.189331, -0.528442, -45.206047, +11.694880, -148.105728 
1494299210.078178, 1494299210.078178, -1.325562, -0.030640, -0.206787, -60.144402, +12.808771, -148.105728 
1494299210.082133, 1494299210.082133, -1.325562, -0.030640, -0.206787, -60.144402, +12.808771, -148.105728 
1494299210.086015, 1494299210.086015, -1.325562, -0.030640, -0.206787, -75.769402, +17.783136, -126.270409 
1494299210.089767, 1494299210.089767, -1.325562, -0.030640, -0.206787, -77.417351, +17.783136, -126.270409 
1494299210.093523, 1494299210.093523, -1.325562, -0.030640, -0.206787, -77.417351, +17.783136, -126.270409 
1494299210.097478, 1494299210.097478, -1.325562, -0.328003, -0.085205, -60.815788, +23.352594, -109.333153 
1494299210.101433, 1494299210.101433, -1.212402, -0.328003, -0.085205, -60.815788, +23.352594, -109.333153 
1494299210.105426, 1494299210.105426, -1.212402, -0.328003, -0.085205, -60.815788, +23.352594, -109.333153 
1494299210.109380, 1494299210.109380, -1.212402, -0.328003, -0.085205, -33.822990, +24.207087, -93.158836 
1494299210.113328, 1494299210.113328, -1.212402, -0.328003, -0.085205, -33.822990, +24.207087, -93.158836 
1494299210.117290, 1494299210.117290, -1.212402, -0.475952, -0.076660, -33.822990, +24.207087, -93.158836 
1494299210.121239, 1494299210.121239, -0.317871, -0.475952, -0.076660, -8.325554, +19.370050, -78.876610 
1494299210.125200, 1494299210.125200, -0.317871, -0.475952, -0.076660, -8.325554, +19.370050, -78.876610 
1494299210.129144, 1494299210.129144, -0.317871, -0.475952, -0.076660, -8.325554, +11.557550, -57.788963 
1494299210.133094, 1494299210.133094, -0.317871, -0.475952, -0.076660, +25.991463, +9.299250, -57.788963 
1494299210.136921, 1494299210.136921, -0.317871, -0.038452, -0.279175, +25.991463, +9.299250, -57.788963 
1494299210.140674, 1494299210.140674, -0.748291, -0.036377, -0.279175, +57.653450, +5.362482, -35.114403 
1494299210.144425, 1494299210.144425, -0.748291, -0.036377, -0.279175, +57.653450, +5.362482, -35.114403 
1494299210.148177, 1494299210.148177, -0.748291, -0.036377, -0.279175, +57.653450, +5.362482, -35.114403 
1494299210.151921, 1494299210.151921, -0.748291, -0.036377, -0.279175, +72.561287, +4.202814, -8.075828 
1494299210.155752, 1494299210.155752, -0.748291, -0.036377, -0.279175, +72.561287, +4.202814, -8.075828 
1494299210.159704, 1494299210.159704, -0.205200, +0.594360, -0.109497, +72.561287, +4.202814, -8.075828 
1494299210.163648, 1494299210.163648, -0.205200, +0.594360, -0.109497, +73.644661, +1.868219, +25.173073 
1494299210.167756, 1494299210.167756, -0.205200, +0.594360, -0.109497, +73.644661, +1.868219, +25.173073 
1494299210.171707, 1494299210.171707, -0.205200, +0.594360, -0.109497, +73.644661, +1.868219, +25.173073 
1494299210.175664, 1494299210.175664, -0.205200, +0.594360, -0.109497, +62.994026, -1.458197, +51.540260 
1494299210.179609, 1494299210.179609, -0.143799, +0.353149, -0.091187, +62.994026, -1.458197, +51.540260 
1494299210.183554, 1494299210.183554, -0.143799, +0.353149, -0.091187, +62.994026, -5.364447, +70.491676 
1494299210.187512, 1494299210.187512, -0.143799, +0.353149, -0.091187, +49.428963, -5.730658, +70.491676 
1494299210.191461, 1494299210.191461, -0.143799, +0.353149, -0.091187, +49.428963, -5.730658, +70.491676 
1494299210.195378, 1494299210.195378, -0.143799, +0.353149, -0.091187, +37.801765, -7.119207, +88.634377 
1494299210.199128, 1494299210.199128, -0.289062, +0.245361, -0.119629, +37.801765, -7.119207, +88.634377 
1494299210.202876, 1494299210.202876, -0.289062, +0.245361, -0.119629, +37.801765, -7.119207, +88.634377 
1494299210.206756, 1494299210.206756, -0.289062, +0.245361, -0.119629, +32.705330, -7.729559, +107.616310 
1494299210.210705, 1494299210.210705, -0.289062, +0.245361, -0.119629, +32.705330, -7.729559, +107.616310 
1494299210.214663, 1494299210.214663, -0.289062, +0.245361, -0.119629, +32.705330, -7.729559, +107.616310 
1494299210.218606, 1494299210.218606, -0.419800, +0.324341, -0.077271, +34.078621, -8.751898, +126.293068 
1494299210.222557, 1494299210.222557, -0.419800, +0.324341, -0.077271, +34.078621, -8.751898, +126.293068 
1494299210.226516, 1494299210.226516, -0.419800, +0.324341, -0.077271, +34.078621, -8.751898, +145.824326 
1494299210.230462, 1494299210.230462, -0.419800, +0.324341, -0.077271, +36.916756, -9.850531, +145.107162 
1494299210.234419, 1494299210.234419, -0.419800, +0.324341, -0.077271, +36.916756, -9.850531, +145.107162 
1494299210.238370, 1494299210.238370, -0.502441, +0.391724, -0.068481, +36.916756, -9.575872, +164.592636 
1494299210.242308, 1494299210.242308, -0.502441, +0.391724, -0.068481, +38.503670, -9.575872, +164.592636 
1494299210.246176, 1494299210.246176, -0.502441, +0.391724, -0.068481, +38.503670, -9.575872, +164.592636 
1494299210.249931, 1494299210.249931, -0.502441, +0.391724, -0.068481, +36.001228, -8.568792, +181.712997 
1494299210.253677, 1494299210.253677, -0.502441, +0.391724, -0.068481, +36.001228, -8.568792, +181.712997 
1494299210.257641, 1494299210.257641, -0.591675, +0.302490, -0.042236, +36.001228, -8.568792, +181.712997 
1494299210.261591, 1494299210.261591, -0.591675, +0.302490, -0.042236, +31.240486, -5.822210, +198.619736 
1494299210.265554, 1494299210.265554, -0.591675, +0.302490, -0.042236, +31.240486, -5.822210, +198.619736 
1494299210.269496, 1494299210.269496, -0.591675, +0.302490, -0.042236, +31.240486, -5.822210, +198.619736 
1494299210.273444, 1494299210.273444, -0.591675, +0.302490, -0.042236, +30.797981, -4.525213, +214.824570 
1494299210.277438, 1494299210.277438, -0.764648, +0.238403, -0.022095, +30.797981, -4.525213, +214.824570 
1494299210.281386, 1494299210.281386, -0.764648, +0.238403, -0.022095, +30.797981, -4.525213, +228.359116 
1494299210.285356, 1494299210.285356, -0.764648, +0.238403, -0.022095, +28.860115, -2.022772, +228.359116 
1494299210.289308, 1494299210.289308, -0.764648, +0.238403, -0.022095, +28.860115, -2.022772, +228.359116 
1494299210.293259, 1494299210.293259, -0.764648, +0.238403, -0.022095, +24.435066, +2.493830, +240.733994 
1494299210.297079, 1494299210.297079, -0.990601, +0.174683, -0.046387, +24.435066, +2.493830, +240.733994 
1494299210.300830, 1494299210.300830, -0.990601, +0.174683, -0.046387, +24.435066, +2.493830, +240.733994 
1494299210.304637, 1494299210.304637, -0.990601, +0.174683, -0.046387, +20.284676, +8.170099, +251.445663 
1494299210.308578, 1494299210.308578, -0.990601, +0.174683, -0.046387, +20.284676, +8.170099, +251.445663 
1494299210.312529, 1494299210.312529, -0.990601, +0.174683, -0.046387, +20.284676, +8.170099, +251.445663 
1494299210.316597, 1494299210.316597, -1.256226, +0.016602, -0.061157, +16.439461, +12.808771, +263.805267 
1494299210.320549, 1494299210.320549, -1.256226, +0.016602, -0.061157, +16.439461, +12.808771, +263.805267 
1494299210.324554, 1494299210.324554, -1.256226, +0.016602, -0.061157, +16.439461, +12.808771, +275.524017 
1494299210.328508, 1494299210.328508, -1.256226, +0.016602, -0.061157, +17.217659, +15.585871, +275.142548 
1494299210.332455, 1494299210.332455, -1.256226, +0.016602, -0.061157, +17.217659, +15.585871, +275.142548 
1494299210.336412, 1494299210.336412, -1.549438, -0.031006, -0.007812, +17.217659, +18.713923, +283.473846 
1494299210.340356, 1494299210.340356, -1.549438, -0.031006, -0.007812, +18.285774, +18.713923, +283.473846 
1494299210.344317, 1494299210.344317, -1.549438, -0.031006, -0.007812, +18.285774, +18.713923, +283.473846 
1494299210.348074, 1494299210.348074, -1.549438, -0.031006, -0.007812, +13.830208, +23.306818, +288.951752 
1494299210.351825, 1494299210.351825, -1.549438, -0.031006, -0.007812, +13.830208, +23.306818, +288.951752 
1494299210.355651, 1494299210.355651, -1.549438, -0.065552, +0.004150, +13.830208, +23.306818, +288.951752 
1494299210.359581, 1494299210.359581, -1.833618, -0.065552, +0.004150, +8.611702, +26.617975, +288.875458 
1494299210.363505, 1494299210.363505, -1.833618, -0.065552, +0.004150, +8.611702, +26.617975, +288.875458 
1494299210.367441, 1494299210.367441, -1.833618, -0.065552, +0.004150, +8.611702, +26.617975, +288.875458 
1494299210.371362, 1494299210.371362, -1.833618, -0.065552, +0.004150, -2.450920, +29.242487, +285.610077 
1494299210.375309, 1494299210.375309, -1.833618, -0.063721, -0.091797, -2.450920, +29.242487, +285.610077 
1494299210.379242, 1494299210.379242, -2.016357, -0.063721, -0.091797, -2.450920, +29.242487, +282.176849 
1494299210.383171, 1494299210.383171, -2.016357, -0.063721, -0.091797, -21.158195, +32.752007, +282.176849 
1494299210.387090, 1494299210.387090, -2.016357, -0.063721, -0.091797, -21.158195, +32.752007, +282.176849 
1494299210.390978, 1494299210.390978, -2.016357, -0.063721, -0.091797, -42.245842, +35.498589, +279.003021 
1494299210.394875, 1494299210.394875, -2.016357, -0.063721, -0.182983, -42.245842, +35.498589, +279.003021 
1494299210.398624, 1494299210.398624, -2.202026, -0.293945, -0.182983, -42.245842, +35.498589, +279.003021 
1494299210.402371, 1494299210.402371, -2.202026, -0.293945, -0.182983, -57.046867, +38.123100, +274.837372 
1494299210.406326, 1494299210.406326, -2.202026, -0.293945, -0.182983, -57.046867, +38.123100, +274.837372 
1494299210.410271, 1494299210.410271, -2.202026, -0.293945, -0.182983, -57.046867, +38.123100, +274.837372 
1494299210.414231, 1494299210.414231, -2.202026, -0.293945, -0.182983, -61.944939, +41.357964, +268.413422 
1494299210.418187, 1494299210.418187, -2.281860, -0.418213, -0.286255, -61.944939, +41.357964, +268.413422 
1494299210.422132, 1494299210.422132, -2.281860, -0.418213, -0.286255, -61.944939, +41.357964, +268.413422 
1494299210.426097, 1494299210.426097, -2.281860, -0.418213, -0.286255, -66.675163, +45.599907, +258.464691 
1494299210.430047, 1494299210.430047, -2.281860, -0.418213, -0.286255, -66.675163, +45.599907, +258.464691 
1494299210.433996, 1494299210.433996, -2.281860, -0.418213, -0.286255, -66.675163, +49.506157, +245.189560 
1494299210.437956, 1494299210.437956, -2.287964, -0.399902, -0.341553, -79.187370, +50.101250, +245.189560 
1494299210.441905, 1494299210.441905, -2.287964, -0.399902, -0.341553, -79.187370, +50.101250, +245.189560 
1494299210.445798, 1494299210.445798, -2.287964, -0.399902, -0.341553, -97.879387, +54.938286, +230.815781 
1494299210.449545, 1494299210.449545, -2.287964, -0.399902, -0.341553, -97.879387, +54.938286, +230.815781 
1494299210.453301, 1494299210.453301, -2.287964, -0.399902, -0.341553, -97.879387, +54.938286, +230.815781 
1494299210.457240, 1494299210.457240, -2.182983, -0.832275, -0.213379, -108.499504, +58.218925, +213.313950 
1494299210.461196, 1494299210.461196, -2.182983, -0.832275, -0.213379, -108.499504, +58.218925, +213.313950 
1494299210.465254, 1494299210.465254, -2.182983, -0.832275, -0.213379, -108.499504, +58.218925, +213.313950 
1494299210.469205, 1494299210.469205, -2.182983, -0.832275, -0.213379, -99.695183, +53.244560, +194.805038 
1494299210.473146, 1494299210.473146, -2.182983, -0.832275, -0.213379, -99.695183, +53.244560, +194.805038 
1494299210.477103, 1494299210.477103, -1.907715, -1.179443, +0.118774, -99.695183, +53.244560, +175.273788 
1494299210.481053, 1494299210.481053, -1.907715, -1.179443, +0.118774, -80.926872, +39.114922, +177.455795 
1494299210.485015, 1494299210.485015, -1.907715, -1.179443, +0.118774, -80.926872, +39.114922, +177.455795 
1494299210.488956, 1494299210.488956, -1.907715, -1.179443, +0.118774, -82.284904, +32.263725, +148.815048 
1494299210.492902, 1494299210.492902, -1.907715, -1.179443, +0.118774, -82.284904, +32.263725, +148.815048 
1494299210.496734, 1494299210.496734, -1.520874, -1.822266, -0.502930, -82.284904, +32.263725, +148.815048 
1494299210.500489, 1494299210.500489, -1.520874, -1.822266, -0.502930, -92.065788, +30.158014, +106.456642 
